Timestamp,linacce_x,linacce_y,linacce_z,gyro_x,gyro_y,gyro_z,X-magnetometer,Y-magnetometer,Z-magnetometer,Yaw, worldXAccel,worldYAccel,worldZAccel,worldXgyro,worldYgyro,worldZgyro
20231225 09:51:46,0.452371,1.219090,-1.231613,-0.420113,0.009095,-0.185600,-27.138565,-6.922756,-9.042809,77.544914,-0.61781126,1.0690386,-1.2175336,-0.39421886,0.019697592,0.3124647
20231225 09:51:46,0.353408,1.097528,-0.945895,-0.428636,0.034664,-0.204777,-26.847366,-6.996788,-8.901115,80.0979,-0.46563542,1.0159137,-1.0345957,-0.41980547,0.04235512,0.29905123
20231225 09:51:46,0.005037,0.790623,-0.457169,-0.404133,0.074082,-0.244194,-27.041367,-7.011395,-8.902092,84.589584,-0.33476228,0.7848979,-0.5428408,-0.4471844,0.07530034,0.24454279
20231225 09:51:46,-0.385277,0.362765,-0.160974,-0.350866,0.101781,-0.281482,-26.556168,-7.070820,-8.759407,88.68212,-0.39369953,0.35603377,0.025254793,-0.44888252,0.10002098,0.17879032
20231225 09:51:46,-0.722817,-0.098892,0.117004,-0.283749,0.104977,-0.307050,-26.875031,-6.898071,-9.443718,90.57816,-0.44277132,-0.15335117,0.56466126,-0.42255202,0.10473887,0.11915699
20231225 09:51:46,-0.998505,-0.564051,0.277302,-0.202782,0.093258,-0.311311,-26.715080,-6.321571,-9.345772,91.92425,-0.5392601,-0.67451334,1.0685704,-0.3618324,0.09824306,0.06799755
20231225 09:51:46,-1.087767,-1.048143,0.407449,-0.101574,0.083670,-0.299593,-26.858513,-7.841885,-9.247963,95.51394,-0.5343985,-1.1799847,1.4592794,-0.26826334,0.0959234,0.018804254
20231225 09:51:46,-1.109313,-1.517053,0.458914,0.035856,0.058101,-0.284678,-26.892570,-7.279995,-9.151009,95.62277,-0.5317652,-1.6563998,1.8363239,-0.1374895,0.08271235,-0.045112528
20231225 09:51:46,-1.055035,-2.030377,0.254856,0.191396,0.008030,-0.272959,-26.920349,-5.279869,-11.023460,90.240944,-0.5905894,-2.1410022,2.2719274,0.0061605424,0.046689123,-0.11296742
20231225 09:51:46,-0.910034,-2.277654,-0.165260,0.322434,-0.081459,-0.264436,-27.223351,-7.568565,-10.743111,93.46765,-0.68079114,-2.3361287,2.3838718,0.11298324,-0.03318096,-0.10996005
20231225 09:51:46,-0.840321,-1.954311,-0.491760,0.425773,-0.235935,-0.243129,-26.522110,-7.632706,-8.856361,94.18414,-0.7980714,-1.9766961,2.0440922,0.17806661,-0.17672732,-0.09216959
20231225 09:51:46,-0.704144,-1.314960,-1.358606,0.450276,-0.392541,-0.237802,-26.858513,-7.841885,-9.247963,89.71987,-1.3930489,-1.2492687,1.3728338,0.1311735,-0.34478664,-0.1012932
20231225 09:51:46,-0.453708,-0.306061,-2.338117,0.353329,-0.496945,-0.247390,-27.104118,-7.676533,-8.859291,84.86875,-2.2523456,-0.17342381,0.4454279,-0.020378321,-0.46828005,-0.089495935
20231225 09:51:46,-0.318536,1.115369,-3.386104,0.124280,-0.484161,-0.252717,-26.830467,-8.132496,-8.424904,81.98294,-3.375893,1.3084583,-0.19063126,-0.17187639,-0.46573308,0.020892844
20231225 09:51:46,-0.296880,2.529825,-4.034210,-0.257115,-0.357384,-0.262305,-27.079414,-8.141552,-9.230598,80.01484,-4.1510963,2.8104591,-0.5198624,-0.2920942,-0.34218258,0.32627422
20231225 09:51:46,-0.399644,3.635929,-3.942252,-0.732260,-0.222085,-0.281482,-26.776680,-7.562378,-8.461571,83.688515,-4.2664266,4.027524,-0.7501891,-0.4495367,-0.21331255,0.756109
20231225 09:51:46,-0.611511,4.107147,-2.935039,-1.187164,-0.103831,-0.295331,-26.742241,-8.316151,-8.278053,88.42997,-3.4354124,4.4091444,-1.1125602,-0.7292192,-0.13133878,1.1264659
20231225 09:51:46,-0.919375,3.521268,-1.297112,-1.472677,0.028272,-0.316638,-27.131020,-7.961590,-8.840950,90.42136,-1.9753761,3.565431,-1.1912614,-1.0836551,-0.04736198,1.2089133
20231225 09:51:46,-1.045269,2.848636,0.788439,-1.503572,0.199793,-0.347533,-27.097343,-8.331589,-9.218361,92.68843,-0.38485217,2.6848385,-1.2275531,-1.302291,0.110156536,0.9638339
20231225 09:51:46,-1.133762,2.374989,2.743484,-1.270261,0.316981,-0.373102,-27.070068,-8.238419,-8.956245,95.610146,0.6735265,2.0525215,-1.3173177,-1.2409415,0.22747076,0.58920515
20231225 09:51:46,-1.398034,1.828804,4.046996,-0.857971,0.336157,-0.380559,-26.592796,-7.067120,-9.295891,95.450264,0.9994763,1.3334652,-1.0101882,-0.9459753,0.2657586,0.24546161
20231225 09:51:46,-1.723964,1.236789,4.361128,-0.359389,0.277563,-0.365644,-26.700752,-8.015465,-9.502998,98.24409,0.8196281,0.5558907,-0.5885687,-0.5249858,0.25663573,0.013370287
20231225 09:51:46,-1.994962,0.951955,3.656295,0.155175,0.229622,-0.330488,-26.289192,-7.875599,-10.713783,97.16736,0.33070338,0.15329918,0.013655305,-0.088379055,0.2906643,-0.24198586
20231225 09:51:46,-2.057480,0.843708,2.257692,0.630320,0.248799,-0.278286,-26.097977,-5.513885,-9.928246,94.43585,-0.3241831,0.08566576,0.5250985,0.2762222,0.40216592,-0.57575864
20231225 09:51:46,-1.901355,0.629077,0.694433,1.002126,0.281825,-0.231410,-26.173302,-8.157974,-10.024330,98.47143,-1.0249562,0.09802289,0.7979741,0.5134416,0.5126714,-0.8716437
20231225 09:51:46,-1.593713,0.116402,-0.868058,1.224784,0.282890,-0.190927,-26.146027,-8.064808,-9.762215,97.703674,-1.6979272,0.0025523305,1.2051034,0.60341984,0.5378975,-1.0924474
20231225 09:51:46,-0.945247,-0.526706,-2.195572,1.294032,0.254125,-0.186666,-26.569893,-8.474102,-9.739708,96.06418,-2.1530294,-0.23280859,1.210193,0.6145749,0.4799993,-1.1580317
20231225 09:51:46,-0.076460,-1.092638,-3.160390,1.217327,0.136937,-0.243129,-26.324287,-8.639454,-10.128395,81.531975,-2.760964,-1.0232667,0.37030885,0.38665804,0.15758052,-1.1431481
20231225 09:51:46,0.584730,-1.265393,-4.144298,1.007453,-0.022865,-0.337945,-26.139244,-8.719864,-10.121300,64.77921,-3.8118923,-2.0734134,-0.7698193,0.051672727,-0.16158128,-0.98384017
20231225 09:51:46,1.039818,-1.109627,-5.010414,0.700633,-0.162426,-0.439153,-26.357689,-6.559933,-10.800346,39.81884,-4.4282203,-3.5886223,-1.8171157,-0.26275492,-0.45187777,-0.73714906
20231225 09:51:46,1.276963,-0.871365,-5.672724,0.330957,-0.258307,-0.536100,-26.016190,-9.849190,-9.510460,19.447903,-3.8963757,-5.1103745,-2.140626,-0.46791863,-0.6203488,-0.3991186
20231225 09:51:46,1.238432,-0.531062,-6.276770,-0.086659,-0.238065,-0.626654,-25.503708,-9.815441,-9.105659,0.357134,-2.5089126,-6.1665215,-1.8549793,-0.44439352,-0.659293,0.024181165
20231225 09:51:46,0.774570,-0.231640,-6.393094,-0.540498,-0.118746,-0.710817,-25.944359,-10.990440,-8.229530,77.21821,-6.283664,0.085625336,-0.87394,-0.7479924,-0.08601323,0.5349277
20231225 09:51:46,-0.071137,0.203106,-5.612868,-0.966637,0.022945,-0.760888,-25.857277,-10.598431,-8.924095,106.09775,-4.8077803,2.8463767,0.43734884,-0.90890074,0.2532521,0.98166543
20231225 09:51:46,-0.974810,0.513990,-4.194616,-1.276653,0.143329,-0.763019,-25.690933,-10.485104,-9.465721,107.873764,-3.913428,2.046434,1.2341192,-1.2444212,0.16525555,1.175838
20231225 09:51:46,-1.709728,0.523727,-2.548718,-1.434325,0.201923,-0.732124,-25.738068,-9.808868,-11.117989,104.857956,-3.0294352,0.88649076,1.4294375,-1.4757849,0.03573209,1.1175731
20231225 09:51:46,-2.274164,0.552012,-0.891313,-1.397038,0.152917,-0.668203,-25.074219,-9.485531,-10.328651,106.09437,-2.3616753,0.060988605,1.3714455,-1.4710903,-0.09497218,0.9956001
20231225 09:51:46,-2.816749,0.573420,0.404993,-1.202079,0.017618,-0.566995,-25.109695,-10.057499,-10.023735,108.176414,-2.104945,-0.52546203,1.2625939,-1.2598252,-0.22902839,0.8846139
20231225 09:51:46,-3.197477,0.716501,1.255828,-0.955983,-0.219954,-0.429565,-24.943741,-9.752281,-10.845833,106.79716,-2.0011196,-0.7605805,1.1524285,-0.9331974,-0.4067409,0.854104
20231225 09:51:46,-3.244510,1.087905,1.261021,-0.727999,-0.483095,-0.264436,-25.128006,-10.055649,-10.291969,107.489105,-2.0284147,-0.4140223,1.0276605,-0.57579935,-0.5998461,0.88345635
20231225 09:51:46,-2.976094,1.577909,0.719790,-0.539432,-0.661009,-0.097176,-25.152718,-9.590630,-9.920662,106.56224,-2.1338174,0.31377462,0.86351985,-0.24930924,-0.73275805,0.8496918
20231225 09:51:46,-2.543077,1.876399,-0.182546,-0.421179,-0.686577,0.054103,-24.738197,-9.084469,-10.217522,103.594185,-2.3793201,1.0941199,0.71284664,-0.037663147,-0.75755924,0.7500268
20231225 09:51:46,-1.916783,1.816764,-0.738431,-0.359389,-0.598153,0.161703,-25.184105,-9.474434,-11.938133,97.21491,-2.2082243,1.5134778,0.36780897,0.030742474,-0.6795845,0.6438251
20231225 09:51:46,-1.094462,1.633555,-0.772130,-0.321036,-0.486291,0.184076,-25.309059,-8.283199,-9.873589,93.86077,-1.5296478,1.5771005,-0.19869134,-3.7001073E-4,-0.54506314,0.551659
20231225 09:51:46,-0.407551,1.509884,-0.486454,-0.253919,-0.380822,0.135070,-25.496780,-6.859566,-11.843987,85.41191,-0.7483699,1.5105872,-0.73758304,-0.042197652,-0.40693745,0.45054775
20231225 09:51:46,-0.067295,1.503289,-0.023689,-0.140992,-0.327555,0.026404,-25.380386,-9.235245,-9.544212,91.82037,-0.14255406,1.4971844,-0.98841465,-0.06110664,-0.3351503,0.3274813
20231225 09:51:46,-0.064913,1.660447,0.221144,-0.006758,-0.354188,-0.102503,-24.571854,-8.971138,-10.759148,89.97319,0.005665496,1.6348382,-1.0919152,-0.05543229,-0.34634706,0.24788791
20231225 09:51:46,-0.394342,1.839493,0.131538,0.093384,-0.411717,-0.209038,-25.280746,-6.864285,-10.099907,90.15818,-0.37689865,1.762428,-0.9421181,-0.043803036,-0.37356767,0.20740025
20231225 09:51:46,-0.941125,2.071755,0.004628,0.148783,-0.467115,-0.266567,-24.683640,-8.898129,-9.693260,96.54658,-0.97178847,1.8757274,-0.6579898,-0.016672835,-0.38732445,0.21591924
20231225 09:51:46,-1.502032,2.376548,0.065026,0.188200,-0.519317,-0.259109,-25.088806,-9.501160,-9.122032,100.937584,-1.4600277,1.9763751,-0.42922357,0.05057448,-0.40582475,0.22945449
20231225 09:51:46,-2.091936,2.376540,-0.310443,0.188200,-0.634375,-0.207973,-24.832436,-8.629524,-9.444328,103.25919,-2.2582293,1.7658689,0.2533737,0.16379991,-0.47176883,0.26430714
20231225 09:51:46,-2.473502,2.535938,-1.233616,0.117887,-0.483095,-0.138725,-24.391289,-9.547821,-8.710152,107.118645,-3.2605386,2.0481381,0.65700316,0.13688363,-0.35887828,0.21999386
20231225 09:51:46,-2.691073,2.808336,-0.024389,0.159436,-0.245523,-0.048170,-24.797997,-9.383305,-9.260826,103.18671,-2.5462582,2.0200856,0.13689691,0.13651589,-0.18148959,0.051654495
20231225 09:51:46,-2.283968,2.825160,1.008158,0.332022,-0.157099,-0.066281,-24.057838,-9.704945,-9.232460,102.098206,-1.4931989,2.0141437,-0.41716546,0.21819548,-0.06770574,-0.12300809
20231225 09:51:47,-2.309159,2.867023,1.311897,0.538700,-0.062283,-0.125941,-24.315750,-9.809025,-10.032066,101.326454,-1.3240292,1.9471107,-0.4391664,0.29797757,0.082823984,-0.3314998
20231225 09:51:47,-2.438537,3.235761,1.263146,0.729397,0.022945,-0.149378,-24.021599,-9.516750,-8.976433,102.81627,-1.5256075,2.2352393,-0.50623894,0.3804907,0.21514079,-0.5325006
20231225 09:51:47,-2.508769,3.366783,1.264721,0.833801,0.034664,-0.132333,-24.260544,-8.105053,-10.276711,98.89463,-1.6035454,2.3158648,-0.46073937,0.451374,0.24811395,-0.6328513
20231225 09:51:47,-2.454334,3.520427,1.160062,0.871089,0.002703,-0.097176,-24.005852,-10.076794,-9.341637,102.49364,-1.6174859,2.527202,-0.5000311,0.4904252,0.20911314,-0.65422994
20231225 09:51:47,-2.531064,4.073387,1.254254,0.888134,-0.007950,-0.041778,-24.214561,-8.205620,-9.465858,101.93001,-1.89626,2.8007796,-0.73809373,0.5361021,0.21746048,-0.6759071
20231225 09:51:47,-3.637287,4.648804,1.657218,0.822082,-0.133661,0.086063,-23.920967,-10.434864,-10.389198,107.18392,-2.8451557,2.4750814,-0.38648447,0.6342724,0.0936004,-0.5636886
20231225 09:51:47,-4.038227,4.744358,1.454312,0.601555,-0.339273,0.349204,-23.273628,-9.167709,-9.795601,105.47821,-3.1654112,2.6207225,0.017954841,0.73877597,-0.25645298,-0.32049444
20231225 09:51:47,-2.910233,4.201450,1.439988,0.277690,-0.482030,0.662417,-24.101128,-10.947594,-8.080009,102.30906,-1.5835749,3.3484821,-0.5993793,0.7611206,-0.5479773,-0.001360938
20231225 09:51:47,-0.626884,3.194543,2.074426,-0.045111,-0.585369,0.871225,-23.764717,-10.738419,-7.688393,93.74027,1.1072953,3.2570076,-1.8941612,0.57269675,-0.5632041,0.40324166
20231225 09:51:47,1.802438,1.674394,2.774110,-0.338082,-0.633309,0.908512,-23.746788,-10.548378,-7.700630,91.21432,3.295391,1.6646707,-2.4630802,0.14763081,-0.39938855,0.69502616
20231225 09:51:47,4.617053,-0.887239,4.258811,-0.598027,-0.490553,0.658155,-23.974854,-10.001099,-7.604652,99.3668,5.6164517,-1.8718331,-1.5567029,-0.40035418,-0.13702443,0.5731064
20231225 09:51:47,5.135774,-1.618614,4.955186,-0.568197,-0.379757,0.491961,-23.974854,-10.001099,-7.604652,102.73761,6.11064,-2.7889826,-1.1598446,-0.4434669,-0.076226614,0.4279097
20231225 09:51:47,5.355660,-2.639266,6.308365,-0.273095,-0.099570,0.060495,-23.805557,-9.521473,-7.232353,104.858284,6.490308,-3.6728106,-0.502931,-0.25745696,8.2434015E-4,0.14948194
20231225 09:51:47,3.919851,-2.837109,6.757981,0.262775,0.222165,-0.410389,-23.268372,-9.952740,-7.198860,106.20535,5.513092,-3.1234121,-0.3244567,0.14751947,0.14983036,-0.17020851
20231225 09:51:47,0.970221,-2.381598,6.245538,0.848716,0.473587,-0.738516,-23.323692,-9.755306,-8.284081,105.75019,3.151646,-2.453405,0.21724021,0.52515894,0.5348398,-0.53769004
20231225 09:51:47,-2.314051,-1.662748,4.950989,1.279117,0.543900,-0.776868,-23.289253,-10.509079,-8.100548,110.68409,0.1935451,-2.9150655,0.8346696,0.7551755,0.9859318,-0.76848805
20231225 09:51:47,-4.468341,-0.774145,3.530944,1.444246,0.402209,-0.483898,-23.316528,-10.602249,-8.362694,113.45729,-1.9707254,-3.2546644,1.750729,0.9080427,1.0311512,-0.90741456
20231225 09:51:47,-4.435678,-0.068221,1.857519,1.354757,0.133741,-0.023667,-23.139694,-11.161461,-7.788551,114.27924,-2.3607104,-2.153563,2.2703261,0.9956377,0.6017488,-0.9458381
20231225 09:51:47,-3.769257,0.090972,1.009022,1.231176,-0.012212,0.203252,-22.822746,-10.374763,-8.506584,104.09593,-1.9205506,-0.88817424,2.4987779,0.9925023,0.19388211,-0.9174092
20231225 09:51:47,-0.487012,-0.920983,-1.256536,0.719809,-0.296659,0.658155,-22.972198,-11.623798,-7.488747,90.34283,-1.3370721,-0.9797351,0.97262156,0.9430038,-0.29178676,-0.3584932
20231225 09:51:47,2.139412,-3.384217,-2.594971,0.368244,-0.198647,0.618738,-22.715439,-10.944050,-7.530571,85.03768,-0.4484974,-4.5968432,1.436833,0.53207314,-0.1461381,0.0055708736
20231225 09:51:47,3.562886,-3.211496,-1.651964,0.074208,-0.131531,0.433367,-22.873199,-10.770470,-7.275520,84.00143,1.1973313,-4.840238,0.53166837,0.21936214,-0.007589981,0.1051587
20231225 09:51:47,3.392804,-3.061148,-1.144642,-0.128208,-0.063348,0.284218,-22.608894,-11.129559,-7.115486,91.13967,1.5495367,-4.331297,0.7782147,0.01091513,0.065921545,0.11752272
20231225 09:51:47,3.167233,-3.237652,-0.000134,-0.150580,0.004834,0.154246,-22.621414,-8.493698,-6.885750,92.927795,2.2811794,-4.109165,1.5250995,-0.0728973,0.08586527,0.054347333
20231225 09:51:47,2.926225,-3.514844,0.609461,-0.053634,-0.004754,0.011489,-21.957352,-11.075653,-7.514442,100.640465,2.3468847,-4.0921803,1.6681163,-0.04373427,0.013138735,0.026407186
20231225 09:51:47,2.039986,-3.042799,0.412265,0.055032,-0.001558,-0.091850,-22.669456,-11.044617,-6.719719,97.75572,1.5543493,-3.2881546,1.3277141,-0.004235793,-0.022454463,-0.018976653
20231225 09:51:47,0.900288,-1.995679,-0.027725,0.134933,0.046383,-0.104634,-22.272491,-10.920380,-6.723885,97.29291,0.5782025,-2.0290785,0.8658893,0.03154611,0.037339933,-0.11481855
20231225 09:51:47,-0.213057,-0.920021,-0.413868,0.163697,0.075147,-0.015145,-22.008183,-11.279469,-6.563850,100.87001,-0.38058436,-0.89910424,0.8156972,0.092917964,0.08679281,-0.16906531
20231225 09:51:47,-0.878179,-0.258802,-0.815039,0.114691,0.075147,0.137200,-22.538597,-11.503254,-6.956429,101.72084,-1.1403716,-0.23950186,0.9477745,0.16704333,0.0678623,-0.15292469
20231225 09:51:47,-0.977246,-0.020355,-1.083707,0.003895,0.075147,0.306591,-22.133430,-10.900223,-7.527641,98.16244,-1.4460809,0.013098486,0.8742381,0.23248817,0.04188876,-0.07624027
20231225 09:51:47,-0.523852,-0.388771,-0.946946,-0.135665,0.058101,0.420583,-22.078487,-10.905769,-6.722908,96.77642,-1.048161,-0.38137263,0.7223805,0.22089359,0.049739562,0.029041402
20231225 09:51:47,0.250189,-0.854539,-0.433205,-0.243266,0.016553,0.447216,-21.927502,-10.424294,-6.618858,93.55092,-0.1822104,-0.90366507,0.46538275,0.13100857,0.07167039,0.13551696
20231225 09:51:47,1.033177,-1.229354,0.113411,-0.276291,-0.013277,0.410995,-21.547806,-8.972462,-7.379707,89.06962,0.7167275,-1.3499657,0.30203858,0.038456783,0.081304535,0.18994874
20231225 09:51:47,1.539299,-1.602326,0.545519,-0.230481,0.002703,0.324701,-21.875900,-10.604252,-7.008522,95.373116,1.3508425,-1.7788665,0.38094416,-0.0071177185,0.089968696,0.10519255
20231225 09:51:47,1.689157,-1.928315,0.995467,-0.115424,0.027206,0.207513,-21.628876,-9.635750,-7.605156,94.260574,1.7099766,-2.076891,0.6382939,0.015912205,0.07365651,0.026806846
20231225 09:51:47,1.499798,-2.037384,1.090008,0.039052,0.063428,0.102044,-21.654617,-10.496471,-6.745399,98.16369,1.6291502,-2.12411,0.7298075,0.09433724,0.06673411,-0.086014934
20231225 09:51:47,1.127159,-2.028105,1.028450,0.189266,0.103911,0.021077,-21.848621,-10.511082,-6.746376,100.42292,1.3300447,-2.069817,0.95974475,0.18079324,0.07963989,-0.18891007
20231225 09:51:47,0.640308,-2.096242,0.973424,0.278755,0.060232,-0.050301,-22.005344,-9.011761,-6.979774,96.38638,1.0158939,-2.089206,1.2198385,0.1979289,0.044903066,-0.20792903
20231225 09:51:47,0.030892,-1.704001,0.334459,0.440688,0.174224,-0.025798,-21.125744,-9.505131,-7.474709,96.951324,0.23830651,-1.704232,1.2525169,0.3230013,0.1746611,-0.41173476
20231225 09:51:47,-0.296203,-1.441369,0.048882,0.518458,0.259452,0.007228,-21.699059,-11.163456,-6.434364,101.74028,-0.15452872,-1.4494158,1.2425038,0.38543585,0.27276632,-0.5358944
20231225 09:51:47,-0.436751,-1.296076,-0.183248,0.556811,0.304197,0.060495,-21.417206,-11.140621,-6.567024,101.20352,-0.39231122,-1.3044556,1.2450739,0.43177977,0.323521,-0.60942274
20231225 09:51:47,-0.508767,-1.234013,-0.412488,0.563203,0.327635,0.099913,-20.880791,-11.188110,-7.094475,99.83427,-0.59469295,-1.2353773,1.2628257,0.45021272,0.34717515,-0.6403788
20231225 09:51:47,-0.386096,-1.267715,-0.683715,0.551484,0.353203,0.129743,-21.347679,-11.130539,-6.968910,98.127815,-0.7320445,-1.2595164,1.208612,0.464536,0.36223844,-0.65363675
20231225 09:51:47,-0.203860,-1.321330,-0.816766,0.531242,0.383033,0.122285,-21.002689,-10.634453,-6.863869,96.718796,-0.7207197,-1.3139603,1.1100522,0.44760752,0.3872883,-0.6576479
20231225 09:51:47,-0.096184,-1.215962,-0.768661,0.533373,0.384098,0.095652,-20.871441,-11.284981,-6.820107,96.55453,-0.6373173,-1.214522,0.9297071,0.42391345,0.3848841,-0.6596154
20231225 09:51:47,-0.113692,-0.974804,-1.016397,0.548288,0.411797,0.075410,-21.259449,-11.314201,-6.822060,96.27831,-0.83494776,-0.94252306,0.75781566,0.3845889,0.42348793,-0.68909967
20231225 09:51:47,-0.265852,-0.794953,-1.138319,0.558942,0.448019,0.078606,-20.908070,-11.281281,-7.356606,97.28386,-0.99407846,-0.70404273,0.7695226,0.35504526,0.47578174,-0.7196289
20231225 09:51:47,-0.699989,-0.659890,-1.323618,0.580248,0.528985,0.130808,-20.516838,-9.176243,-7.490120,94.98329,-1.3913124,-0.55512935,1.0204498,0.38267994,0.5580453,-0.785934
20231225 09:51:47,-0.677872,-0.876307,-1.496741,0.555745,0.538573,0.186206,-20.820221,-11.273052,-7.490242,97.54722,-1.5025798,-0.75680494,1.1727153,0.41506043,0.5572127,-0.77729934
20231225 09:51:47,-0.449880,-1.161174,-1.602790,0.471583,0.502352,0.228820,-20.344372,-11.235603,-7.621910,93.63364,-1.5082335,-1.0998026,1.100576,0.43727237,0.50663084,-0.6839297
20231225 09:51:47,0.001200,-1.360362,-1.701204,0.353329,0.446953,0.246931,-20.256138,-11.419266,-7.475075,89.44364,-1.4321214,-1.4286172,0.7863252,0.4252475,0.4460273,-0.546782
20231225 09:51:47,0.504026,-1.491729,-1.739118,0.231880,0.406470,0.245866,-20.786552,-11.643051,-7.867668,84.70198,-1.2666489,-1.7122602,0.36813414,0.37857425,0.4113133,-0.4117949
20231225 09:51:47,0.879314,-1.498465,-1.759443,0.137064,0.396882,0.241604,-20.001572,-11.489594,-7.869865,80.64135,-1.1300721,-1.8855796,-0.0052520633,0.34111482,0.41219577,-0.3186923
20231225 09:51:47,1.201519,-1.516450,-1.776812,0.066751,0.410732,0.216036,-20.274071,-11.609303,-7.462852,79.14359,-1.0002784,-2.039796,-0.28651184,0.29683548,0.43187994,-0.26824558
20231225 09:51:47,1.394686,-1.355776,-1.760947,0.009222,0.421385,0.165965,-19.922691,-11.576385,-7.997383,75.99742,-0.88241446,-1.9427475,-0.62038374,0.23341137,0.44092655,-0.22134213
20231225 09:51:47,1.376881,-1.122707,-1.758934,-0.042980,0.426712,0.103109,-19.886063,-11.580086,-7.460899,77.61192,-0.88096815,-1.6636679,-0.7397671,0.15058222,0.4405119,-0.18493772
20231225 09:51:47,1.103552,-0.684035,-1.786778,-0.071745,0.439496,0.050907,-19.340294,-11.724445,-7.713997,78.82593,-1.0471985,-1.0515525,-0.7801289,0.07413964,0.44681203,-0.15478733
20231225 09:51:47,0.608565,-0.053936,-1.904634,-0.083463,0.503417,0.040254,-19.446457,-11.730824,-7.848595,83.780205,-1.3924286,-0.13483366,-0.6086026,0.014332613,0.50607264,-0.16056953
20231225 09:51:47,-0.028956,0.252697,-1.905832,-0.117555,0.593971,0.081802,-19.685398,-10.319126,-9.148872,87.02792,-1.698402,0.4362206,-0.14377831,-0.043562286,0.5759095,-0.18065907
20231225 09:51:47,-0.477662,0.283869,-1.623202,-0.187867,0.611017,0.162769,-19.473732,-11.823997,-8.110741,94.2628,-1.6575112,0.4397308,0.3256471,-0.031204253,0.5723923,-0.15923978
20231225 09:51:47,-0.360406,0.451012,-1.232162,-0.260311,0.543900,0.236278,-19.173954,-11.611118,-8.255623,90.53699,-1.2609423,0.5073454,0.07562826,0.032841414,0.5201302,-0.06557928
20231225 09:51:47,0.167035,0.702484,-0.894740,-0.300794,0.422450,0.287414,-18.804642,-11.388157,-8.802376,84.067894,-0.6199832,0.6550762,-0.5763558,0.09247838,0.44423664,0.034977183
20231225 09:51:47,0.847359,0.475201,-0.608912,-0.321036,0.253060,0.276761,-19.183685,-11.322361,-8.810448,81.45447,0.092799336,0.30572546,-1.0139623,0.057707638,0.317448,0.13036253
20231225 09:51:47,1.657404,0.232449,0.181799,-0.295468,0.029337,0.218167,-18.963169,-10.830807,-9.108284,74.49431,1.1964889,-0.0065400116,-1.4221889,-0.0066357255,0.12245378,0.25279808
20231225 09:51:47,1.909188,0.580885,-0.728655,-0.223024,-0.015408,0.137200,-18.935890,-10.737633,-8.846138,68.89281,0.6049583,0.060359433,-2.0387158,-0.015889548,0.056044053,0.22168432
20231225 09:51:47,1.655537,0.845903,-1.414669,-0.202782,0.014422,0.072214,-18.759819,-10.913059,-8.832939,66.7865,-0.15187287,0.22642538,-2.0988026,-0.03634128,0.060311362,0.18385689
20231225 09:51:47,1.412298,1.155848,-1.654153,-0.261377,0.093258,0.030665,-18.451077,-10.605164,-8.983940,67.70011,-0.49116558,0.61237264,-2.05223,-0.079327494,0.12695594,0.19377957
20231225 09:51:47,1.252010,1.402503,-1.367435,-0.355127,0.180616,-0.014079,-18.310860,-11.160675,-8.946281,73.60221,-0.27356,1.0273579,-1.9654791,-0.1652045,0.21010312,0.21291016
20231225 09:51:47,1.179114,1.434495,-0.569333,-0.423309,0.185943,-0.069477,-18.487320,-10.793354,-9.239952,77.9938,0.37272403,1.25673,-1.8334435,-0.2744081,0.21017127,0.2377334
20231225 09:51:47,0.997366,1.455592,0.186944,-0.423309,0.123088,-0.127006,-18.435719,-10.973316,-9.629616,81.48106,0.8975749,1.3887975,-1.6540385,-0.34765828,0.14146733,0.24786948
20231225 09:51:47,1.073868,1.392059,0.593641,-0.318905,0.020814,-0.212234,-18.485130,-10.043274,-8.886986,81.90979,1.2646029,1.356032,-1.6462368,-0.36126828,0.024661435,0.21824345
20231225 09:51:47,1.087850,1.319573,0.517044,-0.282683,0.008030,-0.243129,-18.274616,-10.972485,-8.690269,83.58503,1.2108616,1.2734526,-1.629367,-0.36321855,0.0057103913,0.2008839
20231225 09:51:47,1.228831,1.402866,0.312294,-0.198521,0.010161,-0.298527,-18.206238,-10.386738,-9.933571,76.230194,1.1569344,1.3094342,-1.7540278,-0.35375428,-0.009233013,0.11146818
20231225 09:51:47,1.207507,1.567058,-0.249161,-0.128208,0.086866,-0.384820,-17.392178,-9.198147,-9.601143,73.5487,0.60240245,1.4536054,-1.8673896,-0.38197353,0.056136608,0.0035881028
20231225 09:51:47,0.582800,2.006691,-0.665290,-0.068548,0.296739,-0.449807,-17.879829,-11.598324,-9.047401,85.85476,-0.31882754,2.0311775,-1.5569609,-0.42788196,0.30679625,-0.11081627
20231225 09:51:47,-0.337227,2.541725,-0.421993,0.034790,0.566272,-0.466852,-17.394630,-11.657745,-8.904716,95.45544,-0.9781943,2.523873,-1.022886,-0.47027814,0.64029944,-0.30273482
20231225 09:51:47,-1.695924,3.366693,0.242260,0.225488,0.854982,-0.413585,-17.246601,-11.542564,-9.714592,102.97388,-1.8252771,2.6785116,-0.5044922,-0.4516974,0.9685105,-0.6068437
20231225 09:51:47,-3.108701,3.986880,1.202433,0.507805,1.048875,-0.274024,-16.876522,-11.703384,-9.700401,108.95848,-2.5490746,2.174854,-0.094672084,-0.2696088,1.1738524,-0.954714
20231225 09:51:47,-4.145263,4.426835,1.900866,0.758162,1.020111,-0.072673,-17.230858,-12.102604,-10.079781,111.75011,-3.1517491,1.6227865,0.20779335,0.009945635,1.1475503,-1.1678798
20231225 09:51:47,-4.431112,4.494954,1.739496,0.851912,0.798518,0.180879,-16.912384,-12.083466,-9.675957,112.577324,-3.4440184,1.5848284,0.63048404,0.29035312,0.87136376,-1.1660649
20231225 09:51:47,-3.525478,4.075625,0.869077,0.774142,0.525789,0.442955,-16.772552,-12.447086,-9.918770,106.94399,-2.8587267,2.3860593,0.68736374,0.5478164,0.48994488,-0.9936534
20231225 09:51:47,-1.717896,3.468882,-0.209029,0.624993,0.344680,0.608084,-16.233681,-10.034977,-11.142647,86.72983,-1.803936,3.174141,-0.030057024,0.7188192,0.25948915,-0.6973803
20231225 09:51:47,0.100185,2.801239,-1.431170,0.408727,0.387294,0.632587,-16.269539,-10.415054,-11.118187,67.721275,-1.1701499,2.748482,-1.3633003,0.7569243,0.40254268,-0.42168003
20231225 09:51:47,1.493618,1.911463,-1.446569,0.085927,0.539639,0.529248,-16.472008,-12.617981,-9.502724,67.95789,-0.03952062,1.3251035,-2.444893,0.60842156,0.6296461,-0.2241754
20231225 09:51:47,2.462174,0.966775,-0.167749,-0.300794,0.611017,0.326832,-16.305283,-12.696541,-9.763878,85.85664,1.821803,0.39670455,-2.431656,0.13210371,0.712171,-0.20139083
20231225 09:51:47,2.603038,-0.702907,4.565934,-0.672601,0.184878,0.022143,-16.233944,-11.744495,-10.093239,100.227516,4.6561255,-0.62954295,-1.580549,-0.5252414,0.26398203,0.23036306
20231225 09:51:47,2.608526,-0.398247,2.852224,-0.664078,0.319112,-0.098242,-15.732235,-12.747734,-9.754829,106.289566,3.6729152,-0.50870144,-1.7616677,-0.58001333,0.40452003,0.124512404
20231225 09:51:47,2.074266,-2.187890,4.902550,-0.622530,0.332961,-0.226084,-15.564091,-11.692440,-10.223961,115.19685,3.5832477,-2.198117,-0.8320681,-0.65000415,0.38201043,0.027688958
20231225 09:51:47,1.931117,-3.623638,6.565846,-0.600157,0.090062,-0.340076,-15.529648,-12.446217,-10.040428,121.88964,3.4738994,-3.6279566,-0.87219167,-0.66525245,0.12501886,0.2530642
20231225 09:51:47,1.273764,-4.186084,7.532781,-0.392414,-0.173079,-0.432761,-15.520302,-12.543083,-9.766090,122.83298,2.936418,-4.189283,-0.83787584,-0.47912705,-0.17519198,0.45834523
20231225 09:51:47,0.092087,-4.355554,7.694280,-0.050438,-0.372299,-0.477506,-15.363422,-10.431480,-11.911934,115.57437,1.8835166,-4.482672,0.5715544,-0.1477677,-0.36574247,0.53956914
20231225 09:51:47,-1.010432,-4.071099,6.883667,0.318173,-0.504402,-0.449807,-15.638378,-13.010780,-10.808495,120.55151,1.189326,-4.552513,0.2961545,0.20547995,-0.413589,0.54402316
20231225 09:51:47,-2.135338,-3.090291,5.179887,0.573856,-0.568323,-0.335814,-15.477661,-12.818069,-10.149620,118.3661,0.48123777,-4.1873746,1.1169658,0.46205175,-0.3398729,0.36380023
20231225 09:51:47,-2.964776,-1.785062,3.360184,0.685718,-0.590696,-0.132333,-15.583054,-13.208221,-9.723289,117.983894,-0.3916589,-3.3991365,1.6284597,0.63955986,-0.27443576,0.11104542
20231225 09:51:47,-3.357503,-0.561678,1.881436,0.691045,-0.588565,0.121220,-15.476513,-13.393734,-9.308205,117.88807,-1.2323619,-2.3059382,1.945576,0.7756297,-0.30526498,-0.113170564
20231225 09:51:47,-3.165649,0.371184,0.391273,0.609013,-0.559801,0.381165,-15.447811,-12.166706,-9.254036,113.225464,-1.9203055,-0.86661,2.1074953,0.860871,-0.4316578,-0.23272946
20231225 09:51:47,-2.316651,0.821493,-0.767469,0.439623,-0.490553,0.592104,-15.230907,-13.559082,-9.696892,106.74626,-2.1377764,0.48458523,1.6313493,0.86268765,-0.5525757,-0.20477024
20231225 09:51:47,-1.061119,0.770278,-1.439658,0.194593,-0.411717,0.690116,-15.500450,-13.312489,-8.375954,97.193085,-1.8833447,0.8965823,0.63026714,0.75384617,-0.50200737,-0.008684047
20231225 09:51:47,0.301099,0.295184,-1.459364,-0.067483,-0.326489,0.652829,-15.746441,-12.955254,-8.267738,86.342255,-1.0298691,0.17220747,-0.46422514,0.48319685,-0.27395946,0.25767297
20231225 09:51:48,1.484359,-0.463297,-0.756817,-0.281618,-0.238065,0.484504,-15.604038,-12.760681,-7.877113,90.84017,0.37687135,-0.82491976,-0.7756956,0.114890486,-0.09935966,0.36367425
20231225 09:51:48,2.208467,-1.051770,0.635472,-0.364715,-0.192255,0.247996,-15.579716,-13.033810,-8.528908,100.33962,1.9305761,-1.3442329,-0.68973374,-0.16001801,-0.076372504,0.3431971
20231225 09:51:48,2.284688,-1.362226,1.946928,-0.302925,-0.178406,-0.009818,-15.331150,-12.832867,-8.003670,107.899216,2.8155036,-1.4844913,-0.7313886,-0.27393937,-0.12791625,0.31480664
20231225 09:51:48,1.744991,-1.542668,2.858117,-0.137796,-0.165622,-0.232476,-15.852600,-12.961632,-8.402367,110.39125,2.9199018,-1.5277216,-0.5620381,-0.24972603,-0.165725,0.2732577
20231225 09:51:48,0.751846,-1.565979,3.197702,0.080600,-0.152837,-0.370971,-15.410419,-12.554180,-8.156609,112.13409,2.37487,-1.5871809,-0.19881952,-0.13066955,-0.147532,0.19337082
20231225 09:51:48,-0.394304,-1.430588,3.266453,0.306454,-0.143249,-0.402931,-14.742748,-13.252201,-8.640282,115.21877,1.5581168,-1.6998284,0.13573015,0.046322525,-0.07871618,0.08272388
20231225 09:51:48,-1.335814,-1.328799,2.936357,0.529112,-0.138988,-0.333684,-15.536312,-13.692566,-8.351509,116.963356,0.6873011,-1.9152793,0.63489306,0.2697976,0.0048972704,-0.07264441
20231225 09:51:48,-1.815212,-1.451205,2.255381,0.707025,-0.140053,-0.204777,-15.338966,-13.503548,-7.156136,119.210266,0.0496037,-2.1676762,1.2048705,0.47764194,0.05662901,-0.23768924
20231225 09:51:48,-1.793868,-1.829601,1.258619,0.803972,-0.123008,-0.081196,-14.999504,-13.931946,-8.598473,116.98712,-0.34807158,-2.3827202,1.9387465,0.6077385,0.079268225,-0.37923133
20231225 09:51:48,-1.469368,-2.204590,0.361506,0.825279,-0.108093,-0.001295,-15.332573,-13.966717,-7.795692,116.577835,-0.49095273,-2.4908204,2.3302765,0.6440241,0.06843065,-0.46474642
20231225 09:51:48,-1.138714,-2.500259,-0.386280,0.807168,-0.120877,0.053038,-15.439114,-13.781212,-8.210762,112.57078,-0.65439236,-2.5596433,2.5609183,0.6384061,0.017099116,-0.4932565
20231225 09:51:48,-0.711112,-2.759636,-1.232265,0.741116,-0.149641,0.091390,-14.690380,-13.815945,-8.469002,106.975,-0.984192,-2.621445,2.504301,0.5753726,-0.06770295,-0.48294047
20231225 09:51:48,-0.183341,-2.845618,-2.077622,0.605817,-0.154968,0.106305,-15.029839,-13.387543,-7.026649,100.95785,-1.578729,-2.6747756,1.9569483,0.44277203,-0.1292552,-0.42458096
20231225 09:51:48,0.222775,-2.511160,-2.614351,0.431100,-0.153903,0.090325,-15.031643,-14.329506,-7.099159,92.70232,-2.1732578,-2.492862,1.061906,0.28638008,-0.15293765,-0.30725923
20231225 09:51:48,0.408391,-2.240772,-3.025032,0.230814,-0.100635,0.037057,-14.919090,-14.786293,-7.604103,87.73461,-2.5612009,-2.2293155,0.52536345,0.13146874,-0.10038371,-0.16609308
20231225 09:51:48,0.286314,-1.777057,-2.953348,0.018810,-0.019669,-0.024733,-14.934830,-14.226257,-7.238914,92.232,-2.4276783,-1.6371313,0.5935539,-0.012744922,-0.018124314,-0.007543603
20231225 09:51:48,0.087416,-1.416966,-2.214430,-0.162299,0.013357,-0.085458,-14.751713,-13.347221,-8.634178,92.90828,-1.7224708,-1.2230525,0.71705765,-0.15797243,0.012226835,0.1341236
20231225 09:51:48,-0.171511,-1.047910,-1.380281,-0.267769,0.037860,-0.139790,-14.757607,-14.977348,-6.384285,108.80073,-1.0861963,-0.8839493,0.9704417,-0.27216414,0.031404857,0.2238342
20231225 09:51:48,-0.508379,-0.806281,-0.631203,-0.282683,0.049579,-0.169620,-14.749027,-14.690441,-6.670876,111.09853,-0.6867479,-0.7598688,1.0059037,-0.3131528,0.04108752,0.23105444
20231225 09:51:48,-0.774389,-0.744668,-0.048328,-0.219828,0.084735,-0.190927,-14.239883,-14.831104,-7.460457,112.57494,-0.42818266,-0.82575226,1.047725,-0.29838973,0.08289311,0.16265014
20231225 09:51:48,-0.933383,-0.537232,0.520514,-0.081333,0.115630,-0.202646,-14.803581,-14.876781,-7.195137,114.40713,-0.17314383,-0.7439083,0.87226474,-0.21901254,0.13320023,0.045217495
20231225 09:51:48,-1.070563,-0.654759,0.727094,0.090188,0.127349,-0.210103,-14.794617,-14.781765,-7.201256,115.468895,-0.11766255,-0.93277544,0.96640426,-0.10693677,0.17395891,-0.08221876
20231225 09:51:48,-1.051133,-0.967871,0.532410,0.213769,0.108173,-0.212234,-14.572952,-14.865871,-6.657677,116.63438,-0.18415275,-1.1934655,1.194642,-0.021652192,0.17346019,-0.15663752
20231225 09:51:48,-0.820600,-1.037892,0.215228,0.283016,0.068755,-0.198384,-14.372169,-15.506321,-7.015785,114.84383,-0.23729184,-1.1527983,1.1786939,0.03164026,0.13131122,-0.19821662
20231225 09:51:48,-0.467711,-1.051668,-0.070122,0.334153,0.030402,-0.174947,-14.310951,-14.073631,-8.180458,106.43389,-0.23057626,-1.0771122,1.0196967,0.07899588,0.08347576,-0.24277562
20231225 09:51:48,-0.195923,-1.269069,-0.336709,0.372506,-0.003689,-0.163228,-14.460014,-15.514553,-6.882149,111.18622,-0.26868987,-1.2446736,0.98035365,0.11178337,0.038541682,-0.2480128
20231225 09:51:48,0.031640,-1.356265,-0.666977,0.401270,-0.042041,-0.160032,-13.929989,-15.098873,-6.770042,107.48123,-0.41465673,-1.29884,0.86040443,0.112774745,-0.007825349,-0.27083027
20231225 09:51:48,0.168266,-1.191370,-1.152126,0.420446,-0.034584,-0.151509,-14.166630,-14.838501,-6.387474,105.24891,-0.76435524,-1.075865,0.6534679,0.10676657,0.0024526548,-0.31195635
20231225 09:51:48,0.096862,-1.175770,-1.472224,0.406597,-0.006885,-0.138725,-14.141922,-15.303520,-6.758781,104.021194,-1.082064,-1.0263256,0.7088824,0.0983763,0.029552095,-0.32393312
20231225 09:51:48,0.219458,-1.216014,-1.571032,0.349068,-0.031388,-0.145117,-13.947533,-15.480801,-6.477333,102.42459,-1.1646811,-1.1140924,0.59041417,0.055618137,-0.010780434,-0.26851505
20231225 09:51:48,0.331063,-0.900660,-1.627366,0.255317,-0.111289,-0.180274,-13.762878,-15.369324,-6.750725,99.45019,-1.2059555,-0.77865016,0.2634176,-0.028021455,-0.089851014,-0.157259
20231225 09:51:48,0.177809,-0.365104,-1.588964,0.158371,-0.193321,-0.220757,-13.814098,-15.381252,-6.080589,102.74986,-1.2760243,-0.17860387,0.16917637,-0.099890366,-0.15870771,-0.03069922
20231225 09:51:48,-0.050637,0.210245,-1.522473,0.097646,-0.268960,-0.259109,-13.751343,-14.716118,-6.123375,103.58713,-1.4012747,0.4796908,0.112560295,-0.13631628,-0.2072986,0.05307687
20231225 09:51:48,-0.436807,0.684443,-1.632783,0.073143,-0.292398,-0.292135,-13.832413,-15.379402,-6.348839,108.24366,-1.7855282,1.0607625,0.33787233,-0.13641636,-0.18344483,0.08891528
20231225 09:51:48,-0.980267,1.050824,-1.619744,0.076339,-0.241261,-0.291070,-13.974812,-15.573971,-6.739464,112.7899,-2.1453295,1.378001,0.7292156,-0.11533041,-0.09855131,0.07931249
20231225 09:51:48,-1.371731,0.723035,-1.470087,0.055032,-0.190125,-0.253783,-13.957920,-16.709675,-6.263252,118.79939,-2.0989306,0.9164945,1.2341013,-0.10257471,-0.06573413,0.092753135
20231225 09:51:48,-1.285624,0.376218,-0.988552,-0.000366,-0.205040,-0.183470,-13.419312,-16.007092,-6.437721,115.07116,-1.5785632,0.4053979,1.1303153,-0.09316142,-0.1459146,0.14041577
20231225 09:51:48,-0.597805,-0.170468,-0.402771,-0.039784,-0.289202,-0.127006,-13.903362,-16.523338,-5.738991,115.321365,-0.6539554,-0.17296407,0.6749743,-0.08934507,-0.2738939,0.21903186
20231225 09:51:48,0.175210,-0.843350,0.058864,-0.038719,-0.412782,-0.139790,-13.506004,-16.590988,-5.462685,116.52771,0.1800754,-0.84050065,0.33352757,-0.120958686,-0.4096773,0.30701742
20231225 09:51:48,0.640605,-1.321494,0.189819,0.013483,-0.529971,-0.221822,-13.251816,-16.469429,-6.137947,114.30336,0.5418116,-1.3269497,0.25238118,-0.16725463,-0.53353596,0.36553892
20231225 09:51:48,0.678538,-1.370986,-0.093559,0.095515,-0.592826,-0.341141,-13.170101,-14.288506,-6.681404,104.91778,0.35118404,-1.3656764,0.28452432,-0.20711875,-0.5892684,0.3270815
20231225 09:51:48,0.304710,-0.860018,-0.601852,0.164763,-0.607741,-0.445545,-13.381916,-16.394566,-5.340294,112.621994,-0.24711913,-0.7691566,0.2976368,-0.21884719,-0.54482245,0.2570818
20231225 09:51:48,-0.390765,-0.252977,-1.067938,0.213769,-0.587499,-0.514793,-13.208412,-17.128185,-5.960533,115.55124,-1.0075676,-0.0051968396,0.6734362,-0.16459012,-0.38403636,0.1734283
20231225 09:51:48,-1.154278,0.432069,-1.670549,0.216965,-0.526775,-0.544623,-13.036278,-14.380848,-6.004189,118.196945,-1.9911686,0.8882477,1.2173008,-0.08201161,-0.15012577,0.1172117
20231225 09:51:48,-1.896099,1.006401,-2.107412,0.141325,-0.457527,-0.537165,-13.055126,-17.798038,-4.173653,135.14743,-2.846581,1.4692186,2.0487769,-0.030845702,0.01590681,0.17668214
20231225 09:51:48,-2.545132,1.391089,-2.168084,0.073143,-0.426632,-0.519054,-13.001720,-17.036037,-4.490822,136.34964,-3.405154,1.5308752,2.542459,-0.030344933,0.042431355,0.240605
20231225 09:51:48,-2.824199,1.536785,-1.884669,-0.165495,-0.393606,-0.413585,-12.597973,-17.566853,-4.854057,135.2248,-3.4855046,1.3395782,2.6006837,-0.11632937,-0.1012321,0.41900206
20231225 09:51:48,-2.675908,1.453527,-1.430231,-0.290141,-0.391475,-0.328357,-13.147678,-14.499725,-4.657829,128.98349,-3.084103,1.1068854,2.2003708,-0.17223746,-0.23210248,0.50708747
20231225 09:51:48,-2.333948,1.213430,-0.956960,-0.345539,-0.388279,-0.246325,-13.161671,-17.612530,-4.588737,130.24588,-2.4510012,0.83692086,1.825491,-0.19390234,-0.31995624,0.53313076
20231225 09:51:48,-1.934653,0.930294,-0.679243,-0.342343,-0.376561,-0.177078,-12.454647,-14.145134,-6.281731,118.11752,-1.8985231,0.63089883,1.3632491,-0.1784582,-0.35341066,0.5119665
20231225 09:51:48,-1.528504,0.687265,-0.486837,-0.297598,-0.365907,-0.150444,-13.228912,-17.876415,-6.581749,120.93,-1.427731,0.47472286,1.0997896,-0.16096315,-0.3516046,0.46225038
20231225 09:51:48,-1.253444,0.475486,-0.668487,-0.237939,-0.341404,-0.160032,-12.260265,-14.322411,-6.000282,115.91902,-1.33671,0.40894377,0.99456084,-0.14537784,-0.31364465,0.40072796
20231225 09:51:48,-1.212577,0.722447,-0.794469,-0.183606,-0.275353,-0.187731,-12.570541,-13.862755,-6.971169,111.37122,-1.4854801,0.6936949,0.84731007,-0.15422074,-0.22964805,0.32364643
20231225 09:51:48,-1.332641,1.116832,-0.781719,-0.146319,-0.174144,-0.214365,-12.525101,-17.382366,-4.061562,127.589165,-1.685472,1.0161693,0.93542147,-0.18253557,-0.114878096,0.26333794
20231225 09:51:48,-1.762808,1.539323,-0.390001,-0.097313,-0.068675,-0.206907,-12.391663,-17.282814,-3.664818,131.22305,-1.8178842,1.1057451,1.0006983,-0.18312302,-0.0075834095,0.18321443
20231225 09:51:48,-2.230973,2.028827,0.049330,0.003895,0.002703,-0.151509,-12.278728,-17.931496,-3.889290,133.22607,-1.9972756,1.1822188,1.027654,-0.11017586,0.06340515,0.052871525
20231225 09:51:48,-2.613623,2.398252,0.257385,0.107234,0.021880,-0.055628,-12.287693,-18.026512,-3.883186,134.45328,-2.2679224,1.2281147,1.1442451,0.009589054,0.07235452,-0.07677682
20231225 09:51:48,-2.797765,2.808354,0.216770,0.187135,-0.012212,0.069018,-12.763542,-18.063961,-3.751488,134.29839,-2.5747287,1.5104127,1.2490197,0.15350313,0.010443224,-0.18003838
20231225 09:51:48,-2.790583,3.305469,-0.155272,0.229749,-0.040976,0.205382,-11.266838,-17.749645,-4.828896,130.89543,-3.06066,2.0813365,1.3163531,0.27930686,-0.07389467,-0.2513277
20231225 09:51:48,-2.710319,3.566747,-0.480977,0.167959,-0.040976,0.327897,-11.898766,-14.770138,-5.699516,121.538574,-3.3288069,2.544338,1.3223463,0.33594257,-0.16460833,-0.20929362
20231225 09:51:48,-2.166797,4.401497,-1.261532,0.071012,-0.043107,0.379034,-11.776096,-15.707573,-5.369164,119.47733,-3.908599,3.9578888,0.7844429,0.3486466,-0.20258974,-0.122290686
20231225 09:51:48,-1.557136,4.398461,-0.960313,-0.416917,-0.075067,0.496222,-11.533543,-15.235344,-3.923897,117.18478,-2.7398148,4.2447705,-0.026501015,0.27666372,-0.26856667,0.31281862
20231225 09:51:48,-0.541932,3.946053,0.493424,-0.731195,-0.114485,0.535640,-12.401897,-14.900757,-5.829979,105.746,-0.104319036,3.885794,-1.5979506,0.07905471,-0.17404075,0.60443175
20231225 09:51:48,0.688175,3.301939,2.199193,-0.968768,-0.228477,0.493026,-12.453114,-14.912685,-5.159843,110.54246,2.3279564,3.3840163,-2.9338672,-0.22651613,-0.15958185,0.7858221
20231225 09:51:48,1.523015,2.539235,3.431230,-1.148811,-0.338208,0.424844,-12.509956,-14.845222,-3.289223,121.14063,3.701147,2.6936805,-3.8979402,-0.56694096,-0.17887393,0.8481319
20231225 09:51:48,2.242343,0.869804,4.472447,-1.274523,-0.421305,0.374773,-12.365269,-14.904457,-5.293465,125.1863,4.4556255,0.9930283,-3.9794605,-0.8760103,-0.17799023,0.83836037
20231225 09:51:48,2.892789,-0.618032,5.468378,-1.264934,-0.411717,0.330028,-13.035660,-18.375561,-3.064003,138.36514,4.9738116,-0.60563207,-4.600213,-1.0134606,-0.11274631,0.61236423
20231225 09:51:48,3.339642,-1.962697,6.049099,-1.073172,-0.272156,0.257585,-12.718338,-17.780750,-3.501595,140.82071,5.1057262,-2.1114926,-4.43974,-0.92824113,-0.0068379752,0.3711322
20231225 09:51:48,3.364987,-2.563747,6.212744,-0.718411,-0.040976,0.135070,-12.654816,-17.499393,-2.983437,142.10767,4.8386416,-2.7968724,-4.163848,-0.6512026,0.10756556,0.13127807
20231225 09:51:48,2.570889,-3.947439,6.411331,-0.267769,0.146525,-0.043909,-12.783775,-17.102665,-5.422096,140.521,4.071125,-4.0073237,-3.0503836,-0.2641007,0.177832,0.016432803
20231225 09:51:48,1.306086,-3.638305,5.679248,-0.031261,0.204054,-0.145117,-12.505867,-14.157063,-5.611610,131.70216,3.2641678,-3.6222987,-1.4651446,-0.08071039,0.20359172,-0.04055342
20231225 09:51:48,-0.201227,-2.377730,4.177672,0.582379,0.278628,-0.395474,-13.140400,-17.248081,-3.406578,135.9721,2.1867003,-2.7123559,-1.0445813,0.26820707,0.38327083,-0.22842899
20231225 09:51:48,-1.915689,-0.826020,2.108846,0.777338,0.310589,-0.414650,-12.541878,-18.148067,-3.207909,138.2943,0.17547894,-1.8455033,0.5797162,0.21663368,0.6102947,-0.4617668
20231225 09:51:48,-2.576658,-0.054349,1.079195,0.703829,0.342549,-0.252717,-12.754578,-17.968941,-3.757607,136.98271,-0.80091095,-1.3320042,1.6029941,0.107874915,0.62329227,-0.59113806
20231225 09:51:48,-2.984842,1.890399,-0.862222,0.390617,0.288217,0.009358,-12.593479,-17.968113,-2.818260,136.51001,-3.0159035,1.1907139,2.2123818,0.07790703,0.34656507,-0.44050398
20231225 09:51:48,-2.042004,2.187686,-1.219005,-0.029131,0.185943,0.276761,-12.514599,-18.054897,-2.945778,129.15494,-2.6767273,2.0638208,1.3240056,0.15278402,0.08211436,-0.13120398
20231225 09:51:48,-0.670292,1.212567,-0.851564,-0.374303,0.140133,0.474916,-12.293701,-17.755230,-2.963142,124.641335,-1.1653402,1.235095,0.25439808,0.1628672,0.08737785,0.08556637
20231225 09:51:48,0.585267,-0.174613,-0.013818,-0.539432,0.178486,0.559078,-12.515369,-17.671124,-3.506721,126.42143,0.38572288,-0.21243443,-0.31691888,0.036395162,0.24955468,0.056590974
20231225 09:51:48,1.463752,-1.252152,0.954147,-0.525583,0.266910,0.554817,-12.506405,-17.576099,-3.512840,132.05276,1.6049069,-1.3332334,-0.6572805,-0.058413625,0.3912126,-0.13393396
20231225 09:51:48,1.900459,-2.202802,1.720659,-0.391349,0.332961,0.485569,-12.460812,-17.484783,-2.982460,136.56271,2.2921474,-2.3034608,-0.7438741,-0.061088488,0.4342877,-0.29964763
20231225 09:51:48,1.927356,-2.911330,2.052378,-0.200652,0.347876,0.382230,-13.061520,-17.334873,-3.534111,135.93689,2.4051795,-2.9980001,-0.41209173,0.026705071,0.40561253,-0.3634647
20231225 09:51:48,1.850305,-3.161267,1.991654,-0.012085,0.325504,0.279957,-12.805412,-18.172756,-2.807014,138.4065,2.3114433,-3.2317448,-0.33787698,0.14534032,0.3446914,-0.36921188
20231225 09:51:48,1.714493,-3.072314,1.528454,0.118953,0.276498,0.205382,-12.857014,-17.992798,-2.417351,136.59367,1.99254,-3.138653,-0.044038236,0.23063816,0.27388972,-0.35131902
20231225 09:51:48,1.516081,-2.729678,0.837854,0.158371,0.218969,0.160638,-12.407406,-16.722775,-3.299614,131.63078,1.4766102,-2.80663,0.2996154,0.24062788,0.21183544,-0.31168854
20231225 09:51:48,1.404976,-2.521085,0.513139,0.148783,0.200858,0.147854,-11.923855,-14.113235,-5.608681,120.79232,1.1994101,-2.6049953,0.6170703,0.22485822,0.19551589,-0.28692833
20231225 09:51:48,1.090981,-1.974321,-0.016283,0.048640,0.159309,0.116959,-12.639072,-18.059429,-3.348625,130.28893,0.68171066,-2.0393302,0.3948118,0.12362866,0.16242914,-0.17894335
20231225 09:51:48,0.773897,-1.780483,-0.027595,-0.015281,0.142264,0.092456,-12.690521,-14.268539,-5.338219,117.525276,0.50659806,-1.7992595,0.6376562,0.05505726,0.14469175,-0.11319917
20231225 09:51:48,0.420489,-1.581227,0.105097,-0.037653,0.136937,0.067953,-12.134907,-16.603065,-3.706627,128.23138,0.3740771,-1.5822232,0.57154775,0.019378312,0.13725382,-0.08345074
20231225 09:51:48,0.182493,-1.492083,0.170786,-0.031261,0.142264,0.069018,-12.410862,-14.995777,-5.823860,120.70212,0.32241392,-1.4870723,0.7492062,0.017212376,0.1369024,-0.093797356
20231225 09:51:48,-0.292217,-1.376454,0.278261,-0.021673,0.148656,0.084998,-11.882137,-17.615368,-4.173912,131.89384,0.084559426,-1.4143565,0.8131597,0.029718451,0.13894826,-0.10780669
20231225 09:51:48,-0.432004,-1.271514,0.543105,0.019875,0.159309,0.132939,-11.941017,-14.687050,-5.035515,124.195816,0.13763908,-1.3407879,0.8434843,0.09122046,0.14987545,-0.16653213
20231225 09:51:48,-0.389277,-1.245562,0.649965,0.091254,0.161440,0.184076,-12.583096,-16.739235,-3.032341,131.07991,0.23758155,-1.314384,0.64030933,0.17963052,0.15461512,-0.24051946
20231225 09:51:48,-0.166985,-1.224299,0.606668,0.231880,0.165702,0.254388,-12.419327,-17.184093,-4.207405,129.03845,0.34483206,-1.2567464,0.5301579,0.335286,0.16511142,-0.36947668
20231225 09:51:48,-0.056394,-1.237731,0.524126,0.275559,0.172094,0.269303,-12.425335,-16.912815,-3.287392,129.76784,0.36085653,-1.2561699,0.48656607,0.37912822,0.172645,-0.41061264
20231225 09:51:48,0.173009,-1.194487,0.314134,0.393813,0.221100,0.292741,-12.698219,-16.840633,-3.160851,126.0877,0.3352892,-1.1929678,0.41375813,0.48577738,0.22028801,-0.527292
20231225 09:51:48,0.452723,-1.043959,0.053530,0.422577,0.247733,0.288480,-12.355034,-17.286514,-3.128319,126.01362,0.30562177,-1.055819,0.21155041,0.5065135,0.24392119,-0.56157786
20231225 09:51:48,0.754960,-0.884655,-0.192863,0.481171,0.318046,0.257585,-12.503830,-17.017914,-2.879387,123.411095,0.28439176,-0.9395925,-0.022529759,0.5302489,0.30584398,-0.63041127
20231225 09:51:48,0.902254,-0.807952,-0.283629,0.489694,0.332961,0.237343,-12.697834,-17.032524,-2.880363,121.94407,0.29592448,-0.88766044,-0.15725145,0.5220276,0.317165,-0.6374622
20231225 09:51:48,1.035051,-0.777279,-0.403940,0.500347,0.363856,0.183010,-12.742657,-17.507618,-2.849800,122.01311,0.27124396,-0.8913667,-0.24738283,0.49244744,0.33928648,-0.64404875
20231225 09:51:48,1.004999,-1.012144,-0.631446,0.497151,0.402209,0.092456,-12.742657,-17.507618,-2.849800,121.91068,0.054873645,-1.1325058,-0.031715333,0.41929185,0.3724544,-0.63198894
20231225 09:51:49,0.990785,-1.088274,-0.672807,0.489694,0.417124,0.065822,-12.442883,-17.294743,-2.994682,122.643166,0.036505878,-1.1693622,0.03052415,0.382062,0.397234,-0.6239674
20231225 09:51:49,0.794260,-1.119833,-0.636373,0.481171,0.426712,0.029600,-12.830505,-17.515854,-2.716179,123.475296,-0.04053095,-1.1702745,0.19005159,0.342794,0.41152066,-0.6082218
20231225 09:51:49,0.597946,-1.339370,-0.784678,0.467322,0.402209,0.010424,-12.398056,-16.819645,-3.025246,122.57303,-0.25888202,-1.348965,0.48647648,0.2996352,0.39944664,-0.5803559
20231225 09:51:49,0.361399,-1.403856,-0.981667,0.435361,0.393686,0.002966,-12.258228,-17.183266,-3.268074,123.7157,-0.50475407,-1.349508,0.7457422,0.24873619,0.406788,-0.54576194
20231225 09:51:49,0.045955,-1.267987,-1.046402,0.424708,0.379837,0.022143,-11.481827,-17.316715,-2.983681,126.61302,-0.704455,-1.163827,0.92083097,0.23177616,0.40282494,-0.5305194
20231225 09:51:49,-0.139931,-1.409193,-1.250302,0.403401,0.372379,0.050907,-12.075874,-15.920456,-5.224266,117.06078,-0.9088947,-1.2440573,1.1657737,0.22590116,0.3977376,-0.5341461
20231225 09:51:49,-0.149265,-1.522794,-1.542697,0.296866,0.315916,0.088194,-12.862488,-14.302471,-3.596092,115.28071,-1.1888156,-1.3412524,1.2295465,0.1979096,0.32486603,-0.42476985
20231225 09:51:49,-0.059721,-1.429224,-1.619108,0.248925,0.282890,0.095652,-12.160110,-14.044750,-4.945656,109.554146,-1.2450867,-1.2484894,1.0430849,0.18123528,0.28685597,-0.3686736
20231225 09:51:49,0.065330,-1.226043,-1.883142,0.056097,0.205119,0.105240,-12.150265,-16.234921,-3.060951,117.70576,-1.4626116,-0.988454,0.880938,0.09420401,0.19444478,-0.15956369
20231225 09:51:49,-0.016669,-0.939524,-2.166451,-0.020608,0.198727,0.118024,-12.300480,-17.100170,-2.604057,118.789314,-1.8031926,-0.64063054,0.84053826,0.06900224,0.17937961,-0.08368122
20231225 09:51:49,0.037412,-0.745615,-2.276946,-0.170822,0.210446,0.151050,-12.415600,-17.201576,-2.732567,117.18211,-1.9301786,-0.48231146,0.71352625,0.03615032,0.1825031,0.04113715
20231225 09:51:49,0.087075,-0.553464,-2.107116,-0.302925,0.207250,0.175553,-12.424568,-17.296593,-2.726448,118.26483,-1.7622541,-0.30154738,0.59192455,-0.005008459,0.16775,0.15061186
20231225 09:51:49,-0.051917,-0.134983,-1.923435,-0.386022,0.208315,0.202186,-11.666714,-13.625378,-5.370018,103.976494,-1.7011389,0.16106403,0.3100003,-0.024426788,0.14436331,0.23517926
20231225 09:51:49,-0.245178,0.193320,-1.901346,-0.445682,0.236015,0.253323,-12.029247,-14.503391,-5.182335,107.45861,-1.8149856,0.51837665,0.38982245,-0.016675338,0.1438881,0.26810065
20231225 09:51:49,-0.347142,0.368770,-1.800021,-0.510668,0.258387,0.310852,-12.424034,-13.877548,-4.825203,108.13379,-1.7942917,0.6490922,0.40456858,-0.006725073,0.15187635,0.2991498
20231225 09:51:49,-0.279797,0.530719,-1.541222,-0.558609,0.264779,0.355597,-12.027824,-13.369537,-5.390312,104.54858,-1.5452614,0.7138514,0.18617052,0.007873952,0.17202201,0.32754546
20231225 09:51:49,-0.117277,0.522331,-1.271621,-0.574589,0.257322,0.366250,-11.849182,-12.986778,-4.743675,106.29125,-1.1968743,0.62840897,0.027783081,-5.7950616E-4,0.19209933,0.3180503
20231225 09:51:49,0.080176,0.550793,-0.924436,-0.553282,0.231753,0.335355,-12.416756,-16.625904,-3.573982,116.723236,-0.78552306,0.6153892,-0.10802953,-0.014974207,0.18541096,0.28928763
20231225 09:51:49,-0.015391,0.986315,-0.781082,-0.488296,0.238145,0.317244,-12.363346,-15.863899,-3.891121,115.36325,-0.77227753,1.0564243,-0.27189934,-0.0031358898,0.17605636,0.23956086
20231225 09:51:49,-0.286152,1.299714,-0.713836,-0.417983,0.267975,0.356662,-12.829853,-15.998219,-3.485069,117.464775,-0.9179733,1.3544083,-0.17629102,0.054834753,0.18807909,0.15294954
20231225 09:51:49,-0.367338,1.558254,-0.577114,-0.381761,0.276498,0.453609,-12.584248,-16.163567,-3.873756,115.03126,-0.74759305,1.5704799,-0.3190214,0.16494663,0.24749151,0.08354814
20231225 09:51:49,0.145900,1.357727,-0.297798,-0.416917,0.139068,0.581450,-12.610760,-16.640514,-3.574959,114.12013,-0.010180131,1.3026732,-0.76582575,0.24362251,0.23225248,0.12895943
20231225 09:51:49,1.186066,0.824403,-0.124182,-0.440355,0.069820,0.589973,-12.672092,-16.171795,-3.740120,111.88667,0.7692281,0.61969006,-1.3791103,0.20345303,0.23350537,0.17812027
20231225 09:51:49,2.364874,0.333570,0.109798,-0.458466,-0.053760,0.535640,-12.353619,-16.152657,-3.336296,115.555725,1.728153,-0.23152015,-2.0075974,0.05748406,0.20864904,0.22429658
20231225 09:51:49,3.214611,0.095864,0.311599,-0.412656,-0.145380,0.387557,-12.821274,-15.711308,-3.771660,114.03873,2.4642112,-0.81162465,-2.461574,-0.08391465,0.1225468,0.27942997
20231225 09:51:49,3.694724,-0.127534,0.335851,-0.305056,-0.177341,0.172357,-12.433651,-15.490204,-4.050194,114.97312,2.770803,-1.2362891,-2.6394072,-0.16719699,0.004198365,0.2784192
20231225 09:51:49,3.563635,-0.165598,0.106034,-0.177214,-0.143249,-0.080131,-12.936394,-15.812710,-3.900154,111.54367,2.4212656,-1.154434,-2.5534554,-0.2185894,-0.10308304,0.24055117
20231225 09:51:49,2.679769,0.164814,-0.187894,-0.081333,-0.084655,-0.290004,-12.715496,-15.513042,-3.917519,107.9546,1.5479242,-0.39446858,-2.1731486,-0.28809154,-0.13534793,0.16867891
20231225 09:51:49,1.581423,0.728855,-0.345831,-0.046176,-0.062283,-0.414650,-12.300213,-15.390652,-3.653450,110.30144,0.69161546,0.56234753,-1.6234621,-0.3721223,-0.104580596,0.15231699
20231225 09:51:49,0.446823,1.199529,-0.518291,-0.048307,-0.045237,-0.461525,-13.113621,-15.061611,-4.754784,109.99827,-0.2573257,1.2404263,-0.89009696,-0.41091478,-0.02199768,0.14911386
20231225 09:51:49,-0.530892,1.542482,-0.444023,-0.028065,-0.010081,-0.432761,-12.274734,-16.239445,-3.463814,122.212494,-0.9075335,1.5289373,-0.1366618,-0.36954919,0.05815967,0.15382928
20231225 09:51:49,-1.078687,1.626879,-0.393831,0.036921,0.051709,-0.376298,-12.601025,-16.929276,-3.020103,126.95476,-1.2730933,1.4969727,0.3082382,-0.29290354,0.13833018,0.07178384
20231225 09:51:49,-1.438708,1.641847,-0.232684,0.139194,0.108173,-0.325161,-12.441460,-16.160885,-3.202660,126.95579,-1.4005954,1.3804932,0.5312699,-0.20518085,0.20759237,-0.053848095
20231225 09:51:49,-1.585793,1.652171,-0.273667,0.280886,0.145460,-0.283612,-12.379742,-16.821495,-2.757011,130.04561,-1.5614839,1.3241538,0.7570572,-0.11733256,0.2747292,-0.19922845
20231225 09:51:49,-1.709075,1.896777,-0.568076,0.460930,0.212577,-0.233541,-11.976376,-17.160419,-3.400719,129.3929,-1.964602,1.5915902,0.9040233,-0.020893306,0.36728102,-0.40438813
20231225 09:51:49,-1.929220,2.387907,-1.258746,0.620732,0.324438,-0.179208,-12.398056,-16.819645,-3.025246,130.95833,-2.901688,2.2075503,1.3023311,-0.012290001,0.4982657,-0.61356044
20231225 09:51:49,-2.248791,3.149169,-2.130018,0.655888,0.443757,-0.104634,-12.291897,-16.813263,-2.890648,135.64905,-4.2289643,3.1362324,1.8195881,-0.08515416,0.56317997,-0.69607574
20231225 09:51:49,-2.507941,3.883128,-2.695580,0.483302,0.487437,0.015751,-12.671707,-16.363686,-3.459648,134.55014,-5.204814,3.9581547,2.0337756,-0.12698562,0.46437952,-0.5790365
20231225 09:51:49,-2.312439,4.333829,-2.465662,0.160501,0.412862,0.188337,-12.328907,-16.617672,-3.707603,127.40091,-4.9864216,4.4283476,1.4697771,-0.010491967,0.2775534,-0.30729222
20231225 09:51:49,-1.385857,4.056277,-1.820033,-0.148450,0.321242,0.338551,-12.361160,-15.113823,-3.538139,114.09965,-3.1628027,4.2154174,0.14153334,0.16363832,0.20934594,-0.028844088
20231225 09:51:49,-0.068969,3.257995,-0.849540,-0.367911,0.332961,0.376904,-12.726265,-16.550030,-3.983925,110.4632,-0.8273907,3.2703438,-1.2804556,0.14491649,0.32366213,0.10551957
20231225 09:51:49,0.879146,2.218225,0.657331,-0.534106,0.329765,0.333224,-12.347221,-16.615826,-3.975853,118.28195,1.2295856,2.2037704,-2.105402,-0.051698893,0.38622695,0.13474926
20231225 09:51:49,1.714934,1.130987,2.361221,-0.638510,0.216838,0.244800,-12.584248,-16.163567,-3.873756,124.771835,2.951898,1.1625353,-2.8402457,-0.29342085,0.31840512,0.18654719
20231225 09:51:49,2.408310,0.147702,3.901325,-0.620399,0.079408,0.092456,-12.902340,-16.374599,-3.997124,129.97946,4.156923,0.18175648,-3.519532,-0.45438254,0.18588975,0.24819955
20231225 09:51:49,2.667086,-0.724813,4.960264,-0.494688,-0.035649,-0.097176,-12.550575,-16.533569,-4.251183,134.14456,4.6608515,-0.69494426,-3.8658302,-0.48099717,0.030808814,0.32405746
20231225 09:51:49,2.205892,-1.360942,5.522280,-0.346604,-0.135792,-0.260175,-12.638805,-16.349907,-4.398033,134.9805,4.3600864,-1.3045986,-3.6155233,-0.43175662,-0.115305044,0.40502965
20231225 09:51:49,1.239132,-1.897908,5.799006,-0.242200,-0.238065,-0.335814,-12.522911,-16.632282,-3.708580,137.51103,3.48237,-1.8828422,-3.239399,-0.35907102,-0.23702005,0.47164816
20231225 09:51:49,0.233099,-2.245521,6.210822,-0.156972,-0.406390,-0.323030,-12.771854,-16.641346,-4.514290,136.93329,2.6375732,-2.355249,-2.8639195,-0.26052305,-0.40694097,0.5344441
20231225 09:51:49,-0.282001,-2.332584,6.192200,-0.057895,-0.601349,-0.267632,-12.832039,-16.748295,-3.838051,137.55452,2.219905,-2.531424,-2.6475258,-0.1394046,-0.59563756,0.57808256
20231225 09:51:49,-0.467651,-2.249097,5.615992,0.030529,-0.738779,-0.210103,-12.884411,-16.184559,-4.009346,135.56583,2.0330913,-2.4914181,-2.00763,-0.032985855,-0.7253426,0.5913725
20231225 09:51:49,-0.600676,-1.977538,4.712115,0.074208,-0.837856,-0.156836,-12.795799,-16.560108,-3.582039,135.75786,1.8293307,-2.262566,-1.4605938,0.03273298,-0.81824243,0.57519186
20231225 09:51:49,-0.719306,-1.426966,3.712315,0.079535,-0.895385,-0.109961,-13.210049,-15.356750,-4.334557,129.6233,1.5384774,-1.7395877,-0.6575216,0.066137,-0.87325025,0.5885175
20231225 09:51:49,-0.785922,-0.787171,2.729599,0.064620,-0.870882,-0.075869,-12.281246,-13.874870,-4.154121,125.20395,1.242234,-1.1259398,-0.191849,0.08299511,-0.84715784,0.5300573
20231225 09:51:49,-0.880919,-0.209910,2.044764,0.013483,-0.788850,-0.051366,-13.591278,-16.041027,-4.695595,125.84237,0.71416277,-0.5125448,-0.17700619,0.05562818,-0.77311933,0.48961106
20231225 09:51:49,-0.998379,0.135128,1.926915,-0.047242,-0.721733,-0.042844,-13.623028,-16.630474,-2.915825,130.02626,0.553414,-0.19553992,-0.30003858,0.01584229,-0.71318626,0.4563261
20231225 09:51:49,-1.078146,0.363269,1.858325,-0.069614,-0.617329,-0.039648,-13.171886,-16.128006,-2.676186,130.38177,0.43194747,0.014781415,-0.3368588,-0.0068123154,-0.61259204,0.4084556
20231225 09:51:49,-1.200014,0.363928,1.979145,-0.013150,-0.411717,-0.030059,-13.462696,-16.245861,-2.537407,131.08022,0.37228543,-0.022271216,-0.36623943,0.01776491,-0.40381604,0.25398874
20231225 09:51:49,-1.308397,0.213744,2.416884,0.120018,-0.181602,-0.018341,-13.056374,-16.218491,-2.267204,133.38254,0.4885087,-0.23883162,-0.5613923,0.10125421,-0.16043109,0.034609832
20231225 09:51:49,-1.511093,-0.079188,2.829065,0.285147,-0.015408,-0.002360,-13.498940,-16.434055,-2.793434,133.21121,0.500213,-0.6389394,-0.5713324,0.22663401,0.028625956,-0.16336884
20231225 09:51:49,-1.679189,-0.432211,2.994967,0.452407,0.066624,0.038123,-13.108746,-15.654758,-2.438515,133.89368,0.41742694,-1.0570295,-0.44048524,0.37994236,0.1350446,-0.32620227
20231225 09:51:49,-1.638329,-0.861889,2.783506,0.613274,0.082604,0.091390,-13.305706,-16.035667,-3.353401,132.1566,0.38113332,-1.3717811,-0.027330399,0.5398387,0.1592786,-0.46049896
20231225 09:51:49,-1.292951,-1.314648,2.216480,0.746443,0.053840,0.138266,-13.083656,-16.311661,-2.529350,133.74783,0.42067116,-1.6776223,0.3175478,0.6718114,0.13505135,-0.5585036
20231225 09:51:49,-0.827131,-1.627826,1.251587,0.819952,0.026141,0.172357,-13.742363,-15.518623,-2.051796,129.87456,0.2830426,-1.781433,0.8735364,0.7367854,0.08518408,-0.6263545
20231225 09:51:49,-0.340103,-1.981629,0.332085,0.829540,0.008030,0.180879,-13.428642,-16.807751,-2.634361,129.10759,0.054630324,-2.0055392,1.2032686,0.7294899,0.03562225,-0.6537969
20231225 09:51:49,0.015485,-2.219059,-0.561126,0.792253,0.001638,0.161703,-13.488827,-16.914700,-1.958138,127.167946,-0.38503018,-2.2155583,1.4320129,0.66042453,0.005107564,-0.6450677
20231225 09:51:49,0.247420,-2.425967,-1.314532,0.702763,0.006965,0.129743,-13.577438,-16.539154,-2.385445,122.20268,-0.8947339,-2.4526935,1.5728701,0.549731,-0.0012520591,-0.5878597
20231225 09:51:49,0.328506,-2.585016,-1.822759,0.567464,0.005899,0.100978,-13.868252,-16.657009,-2.246666,119.20031,-1.3662525,-2.67369,1.6411245,0.42378193,-0.008883389,-0.48480532
20231225 09:51:49,0.449381,-2.507674,-2.060932,0.419381,-0.010081,0.083933,-13.355770,-16.623264,-1.841850,119.36826,-1.5533233,-2.6386335,1.4970746,0.31182176,-0.022539716,-0.3596995
20231225 09:51:49,0.457914,-2.560252,-2.097286,0.279820,-0.032453,0.063691,-13.603947,-17.016102,-2.086632,119.155655,-1.5857286,-2.71199,1.5532439,0.21427059,-0.04163232,-0.22745962
20231225 09:51:49,0.444967,-2.571143,-1.979076,0.170089,-0.068675,0.038123,-13.619690,-16.456062,-1.721428,119.74761,-1.4550033,-2.6837976,1.5529103,0.12819663,-0.0730098,-0.11257564
20231225 09:51:49,0.379613,-2.552044,-1.921781,0.090188,-0.080394,0.015751,-13.463467,-15.862087,-3.098351,115.79533,-1.4124331,-2.6290991,1.5539982,0.06327073,-0.08214755,-0.03371525
20231225 09:51:49,0.282434,-2.344330,-1.736836,0.023071,-0.070806,-0.004491,-14.105278,-16.204754,-2.144585,119.24135,-1.2539876,-2.3825145,1.5344007,0.009043842,-0.071224764,0.020556258
20231225 09:51:49,0.233051,-2.178995,-1.320504,-0.018477,-0.064414,-0.034321,-13.780022,-16.840668,-2.099831,123.24195,-0.88595825,-2.1914542,1.4455982,-0.0387489,-0.06456788,0.060613215
20231225 09:51:49,0.155757,-2.069293,-0.919914,-0.028065,-0.060152,-0.076935,-13.620075,-16.264172,-2.001900,124.18235,-0.5773978,-2.0619855,1.3458123,-0.07604172,-0.059790492,0.082220614
20231225 09:51:49,0.075201,-1.871309,-0.529943,-0.005693,-0.048433,-0.116353,-13.747505,-16.635006,-3.318672,122.65062,-0.31646848,-1.8621782,1.1879692,-0.0896379,-0.04679174,0.07343292
20231225 09:51:49,-0.025415,-1.670689,-0.188923,0.041182,-0.043107,-0.149378,-13.293903,-13.672939,-3.775459,117.44435,-0.09463412,-1.6625451,1.0836375,-0.08008647,-0.036184486,0.042406574
20231225 09:51:49,-0.202141,-1.499914,-0.004778,0.107234,-0.047368,-0.171751,-13.709572,-13.603436,-4.320015,115.75617,-0.061533026,-1.5055918,1.063989,-0.051171504,-0.033069834,3.4803152E-4
20231225 09:51:49,-0.267265,-1.364485,0.019196,0.171155,-0.059087,-0.185600,-13.831242,-16.852596,-1.429710,128.05356,-0.08917515,-1.3748163,0.9056494,-0.02146475,-0.040602982,-0.02103173
20231225 09:51:49,-0.226595,-1.254291,-0.117100,0.214834,-0.074002,-0.203711,-13.364735,-16.718281,-1.835747,126.829636,-0.16905198,-1.2551953,0.8654932,-0.01303795,-0.053485908,-0.047409296
20231225 09:51:49,-0.216748,-1.081907,-0.250176,0.234010,-0.104897,-0.222887,-13.910503,-16.573917,-1.582664,125.40176,-0.26364613,-1.0737975,0.8091494,-0.021620184,-0.07942997,-0.04938195
20231225 09:51:49,-0.286083,-0.755554,-0.393523,0.257448,-0.134727,-0.243129,-13.682446,-17.121201,-1.678642,125.49089,-0.41828856,-0.7345989,0.72432125,-0.034427226,-0.09636026,-0.06289629
20231225 09:51:49,-0.455308,-0.405117,-0.754416,0.287278,-0.103831,-0.244194,-13.664516,-16.931160,-1.690865,125.53441,-0.8106821,-0.3304749,0.7993198,-0.030542418,-0.038428165,-0.118388966
20231225 09:51:49,-0.824945,-0.248377,-1.016284,0.304323,-0.016473,-0.212234,-13.982224,-17.334072,-1.533760,128.11232,-1.2202246,-0.13596305,1.136435,-0.00832887,0.069070056,-0.1808225
20231225 09:51:49,-1.067313,-0.157346,-0.948707,0.305389,0.051709,-0.160032,-13.867485,-17.040787,-1.685722,128.49355,-1.3162469,-0.097114176,1.2838556,0.026569396,0.12852803,-0.22321284
20231225 09:51:49,-0.958849,-0.587202,-0.793426,0.253187,0.041056,-0.112091,-13.700222,-13.700306,-4.045647,116.20037,-1.0994202,-0.5601496,1.2911288,0.053033337,0.08717343,-0.1975989
20231225 09:51:49,-0.454492,-1.224593,-0.591723,0.131737,-0.077198,-0.097176,-13.708424,-14.179104,-3.478600,116.32098,-0.6754478,-1.2083455,1.2023281,0.010532282,-0.06555709,-0.03319722
20231225 09:51:49,0.243362,-1.547031,-0.367803,-0.004628,-0.259372,-0.116353,-14.052910,-16.768486,-1.973289,122.3154,-0.18486704,-1.5683806,0.7911242,-0.10202305,-0.2636048,0.18617302
20231225 09:51:49,0.833323,-1.732186,-0.303441,-0.099444,-0.415978,-0.166424,-14.088383,-17.340458,-1.668358,122.409096,0.14871907,-1.8182752,0.43542108,-0.23065847,-0.42031932,0.36370188
20231225 09:51:49,1.078822,-1.713840,-0.425151,-0.126077,-0.490553,-0.231410,-13.938168,-16.475201,-2.125267,118.35546,0.16890678,-1.8416682,0.25122952,-0.31150126,-0.49966976,0.44109362
20231225 09:51:49,0.829043,-1.381899,-0.702320,-0.064287,-0.455396,-0.301723,-13.974026,-16.855278,-2.100807,117.562584,-0.16864932,-1.4385005,0.20008504,-0.30529442,-0.46653128,0.36198598
20231225 09:51:49,0.087024,-0.711002,-1.194539,0.062489,-0.289202,-0.357121,-13.885414,-17.230824,-1.673500,123.450455,-0.8722436,-0.52140623,0.5533006,-0.23139498,-0.22839051,0.1659869
20231225 09:51:49,-1.008864,-0.211868,-1.487957,0.197789,-0.062283,-0.383755,-13.779636,-17.032558,-1.819359,131.45569,-1.6062781,0.129767,1.4409431,-0.18637669,0.117602944,-0.024341859
20231225 09:51:49,-1.961244,0.082897,-1.686187,0.291539,0.145460,-0.372036,-13.621494,-17.398029,-1.793922,137.92838,-2.2529192,0.32355404,2.2967224,-0.19202605,0.37472498,-0.16211215
20231225 09:51:49,-2.380522,0.327641,-1.478219,0.304323,0.261583,-0.341141,-13.488827,-16.914700,-1.958138,137.45947,-2.4632194,0.28186926,2.4815946,-0.2045528,0.46103948,-0.21991077
20231225 09:51:49,-2.292672,0.633945,-0.959410,0.290474,0.255191,-0.282547,-13.842777,-17.505806,-2.057045,134.77142,-2.1867843,0.37708604,2.0621634,-0.15756133,0.40745214,-0.23660767
20231225 09:51:49,-1.987489,1.114375,-0.447517,0.289408,0.155048,-0.191992,-13.709724,-17.214363,-1.940773,132.23282,-1.7641901,0.7611711,1.4253473,-0.052862495,0.26785272,-0.23983258
20231225 09:51:49,-1.611208,1.208635,-0.463525,0.270232,0.015487,-0.075869,-13.673096,-17.218063,-1.404289,131.15045,-1.5485115,0.99028087,1.0925997,0.06892111,0.08488679,-0.21486929
20231225 09:51:49,-1.195760,1.169847,-0.678230,0.224422,-0.109158,0.042384,-13.779255,-17.224445,-1.538887,126.97114,-1.4311063,1.1315954,0.8089489,0.16878799,-0.08510782,-0.16924642
20231225 09:51:49,-0.732068,1.006816,-0.973408,0.167959,-0.184798,0.134004,-13.903458,-15.519455,-2.991127,116.622925,-1.3711147,1.0967093,0.43889663,0.22821644,-0.1895794,-0.10127717
20231225 09:51:49,-0.363681,0.901641,-1.018830,0.141325,-0.244457,0.184076,-13.522999,-14.451405,-3.191032,111.23871,-1.1821871,1.0014542,0.115551636,0.25794157,-0.2566997,-0.054698996
20231225 09:51:50,-0.140955,0.692363,-1.249800,0.141325,-0.264699,0.186206,-13.549389,-16.829758,-1.562370,117.296,-1.2404276,0.78855145,0.10872474,0.25056845,-0.27346507,-0.062331494
20231225 09:51:50,0.141833,0.273678,-1.303450,0.118953,-0.250850,0.121220,-13.708954,-17.598145,-1.379829,117.504524,-1.0975792,0.30218592,0.03924875,0.16752285,-0.2520185,-0.029051166
20231225 09:51:50,0.346810,0.507921,-0.961942,0.110430,-0.266830,0.024273,-13.460243,-13.786270,-3.233818,104.56953,-0.69114643,0.5060968,-0.4229738,0.07222907,-0.26688266,0.018896159
20231225 09:51:50,0.345059,1.079066,-0.702854,0.111495,-0.300921,-0.049236,-13.340626,-14.086124,-1.069527,112.86888,-0.48041654,1.0892105,-0.6361214,0.010579038,-0.299657,0.036062747
20231225 09:51:50,0.210049,1.611034,-0.562038,0.081666,-0.365907,-0.083327,-13.997581,-16.965927,-0.888084,117.66663,-0.48519853,1.6397023,-0.70380795,-0.021599047,-0.3596978,0.08711514
20231225 09:51:50,-0.074962,2.143871,-0.424906,0.019875,-0.473507,-0.081196,-14.024860,-17.059097,-1.150215,118.94533,-0.6078435,2.1681538,-0.6699992,-0.020541903,-0.46276343,0.18239251
20231225 09:51:50,-0.291922,2.375099,-0.346214,-0.039784,-0.605610,-0.078000,-14.193005,-18.114384,-0.681084,121.7208,-0.681819,2.3805385,-0.539911,-0.024622485,-0.59556496,0.2785959
20231225 09:51:50,-0.304449,2.180843,-0.489823,-0.067483,-0.666335,-0.099307,-14.306324,-17.273819,-0.737083,120.42099,-0.7914813,2.2013934,-0.44564885,-0.050959393,-0.6554072,0.33578378
20231225 09:51:50,-0.380894,1.913714,-0.349472,-0.029131,-0.620525,-0.152574,-13.952377,-16.682716,-0.638191,122.90764,-0.69349277,1.9141808,-0.35155654,-0.07991756,-0.6011539,0.31744426
20231225 09:51:50,-0.546890,1.522309,0.259247,0.088058,-0.554474,-0.244194,-14.209133,-17.362457,-0.596367,126.803215,-0.26333135,1.4325426,-0.28000957,-0.08882439,-0.5122365,0.24395919
20231225 09:51:50,-0.885349,1.253903,0.691008,0.262775,-0.505468,-0.354991,-14.527988,-17.189713,-1.280663,127.32645,-0.14808375,1.0041696,-0.052277848,-0.054793,-0.40247563,0.12506935
20231225 09:51:50,-1.411714,1.203629,0.682614,0.455603,-0.404260,-0.432761,-14.166496,-17.637440,-0.979912,132.93796,-0.5666688,0.713018,0.4202423,0.019799262,-0.18929976,-0.048399746
20231225 09:51:50,-2.145302,1.279656,0.568207,0.638843,-0.281745,-0.457264,-14.254337,-17.645676,-0.846260,137.472,-1.2433047,0.42739475,1.0486509,0.120215416,0.06523125,-0.2304703
20231225 09:51:50,-2.957577,1.413061,0.488585,0.827409,-0.165622,-0.429565,-14.351151,-17.748917,-0.706520,141.80832,-1.9646925,0.08258997,1.7140523,0.24536017,0.29956198,-0.42928898
20231225 09:51:50,-3.625979,1.569615,0.201236,1.054328,-0.038845,-0.367775,-14.271503,-18.219486,-0.273094,147.42589,-2.7111714,-0.17658776,2.45811,0.36822692,0.5372561,-0.69492555
20231225 09:51:50,-4.190698,1.967998,-0.357253,1.248222,0.109238,-0.259109,-14.034477,-18.671749,-0.375191,151.26387,-3.6031852,0.0044094324,3.2538884,0.42732137,0.7046244,-0.9763683
20231225 09:51:50,-4.195267,2.298024,-1.066698,1.312143,0.177420,-0.118483,-13.962372,-18.103481,-0.143623,153.25668,-4.1068974,0.70127654,3.6879654,0.41483542,0.65997183,-1.1532545
20231225 09:51:50,-3.649158,2.751011,-1.741944,1.243960,0.236015,0.004032,-14.129482,-17.833031,-0.162941,152.88573,-4.395123,1.8428324,3.4832976,0.3073334,0.5195162,-1.1912678
20231225 09:51:50,-3.063796,3.258840,-2.126365,1.041544,0.324438,0.134004,-14.210552,-18.496319,-0.388390,149.52113,-4.6377025,2.8889713,2.9619927,0.17640057,0.3645466,-1.0765445
20231225 09:51:50,-2.098080,3.464622,-2.037299,0.649496,0.392621,0.295937,-14.155991,-18.309978,0.135872,134.83873,-3.9445043,3.6691372,1.7041106,0.25250208,0.29654986,-0.76421607
20231225 09:51:50,-0.621593,3.300537,-0.596030,0.164763,0.327635,0.454674,-14.293152,-18.392048,-1.735725,113.674034,-0.92166847,3.3102126,-0.539268,0.4696136,0.31251287,-0.34346527
20231225 09:51:50,1.010662,2.438713,1.293025,-0.225155,0.177420,0.553751,-14.020103,-15.750832,-0.163803,114.98918,2.020848,2.48984,-2.3846858,0.3517834,0.2912076,-0.035476483
20231225 09:51:50,2.512947,0.890275,3.005405,-0.439290,0.027206,0.532444,-13.841621,-18.081478,-1.215630,125.30447,3.98975,0.94651955,-3.5185356,0.049167812,0.23730654,0.073844284
20231225 09:51:50,3.481912,-0.631463,4.371252,-0.462727,-0.084655,0.354531,-14.244072,-14.515388,-2.390205,121.60839,5.1010404,-0.6980221,-3.44561,-0.20026322,0.11547121,0.1752325
20231225 09:51:50,3.727685,-1.910405,5.197645,-0.294402,-0.129400,0.082867,-14.905499,-17.891472,-0.166847,132.56946,5.431671,-1.9895122,-3.714622,-0.23324634,-0.03283,0.18381354
20231225 09:51:50,3.127954,-2.492502,5.320555,0.024137,-0.042041,-0.163228,-14.962360,-16.926476,-2.373940,130.11105,4.9961433,-2.4379065,-2.8768172,-0.06296614,-0.0648575,0.10707639
20231225 09:51:50,2.152767,-2.632382,4.996965,0.394878,0.123088,-0.295331,-14.656017,-14.463364,-1.459908,125.845535,4.260254,-2.48273,-1.8203187,0.18700027,0.051160052,-0.14920077
20231225 09:51:50,1.291822,-2.349134,4.291826,0.676130,0.200858,-0.315573,-15.012424,-17.514069,-0.862389,130.54387,3.4807546,-2.210576,-1.5789063,0.36231506,0.13850595,-0.36376226
20231225 09:51:50,0.877549,-1.888821,3.298395,0.773076,0.120957,-0.283612,-14.826618,-17.978260,-0.294365,129.86687,2.809555,-1.7890863,-1.0844591,0.37746024,0.07524126,-0.46200722
20231225 09:51:50,0.835450,-1.300145,2.177793,0.692110,-0.071871,-0.225018,-14.900642,-17.587082,-1.928291,120.32221,2.1244106,-1.1947808,-0.6346061,0.25691408,-0.124268666,-0.4270063
20231225 09:51:50,0.996475,-0.523064,1.008620,0.471583,-0.281745,-0.169620,-15.046982,-14.858887,-2.375771,104.17671,1.3006346,-0.4647457,-0.7235663,0.06117788,-0.3355919,-0.24450088
20231225 09:51:50,1.229155,0.189368,-0.093433,0.161567,-0.441547,-0.125941,-14.514919,-17.304062,0.468552,108.234695,0.46951637,0.050553814,-1.1796019,-0.1337814,-0.47107065,0.044971377
20231225 09:51:50,1.284112,0.647395,-0.858409,-0.212370,-0.536363,-0.108895,-14.932392,-18.176525,-0.148506,101.67391,-0.16025949,0.31238127,-1.3636591,-0.29955882,-0.5256376,0.39603126
20231225 09:51:50,1.169629,0.722560,-1.255433,-0.590569,-0.544886,-0.127006,-14.683449,-18.167469,0.657211,104.49158,-0.5978936,0.35137764,-1.2309031,-0.43279403,-0.5126283,0.74632376
20231225 09:51:50,0.926770,0.726610,-1.257826,-0.924023,-0.417044,-0.154705,-14.604568,-18.254253,0.529686,112.31101,-0.7199894,0.5489253,-0.93027824,-0.5415146,-0.39005068,1.0239533
20231225 09:51:50,0.483637,0.490166,-0.141084,-1.142419,-0.205040,-0.173881,-15.593285,-18.133572,-0.023918,122.5381,0.12890476,0.4986776,-0.5890143,-0.7519676,-0.21556436,1.1086215
20231225 09:51:50,-0.227715,0.108338,1.630601,-1.173314,-0.044172,-0.158967,-15.099503,-17.906075,-0.167824,131.06284,1.0588112,-0.06450889,-0.58660996,-0.8863018,-0.12518728,0.97445583
20231225 09:51:50,-0.942244,-0.155081,3.041626,-1.030558,0.054905,-0.083327,-14.932777,-17.984638,-0.428978,134.50934,1.3873911,-0.6227926,-0.8256101,-0.8128734,-0.06341536,0.7206116
20231225 09:51:50,-1.244934,-0.389968,3.860001,-0.777005,0.084735,0.035992,-14.872211,-18.069576,-0.824745,135.18207,1.5580955,-0.9742044,-1.0702865,-0.57839954,-0.021774873,0.43833125
20231225 09:51:50,-1.104683,-0.740413,3.912921,-0.484034,0.055971,0.156376,-14.869640,-17.511391,-0.191299,134.457,1.723897,-1.1706265,-0.97565556,-0.2741384,-0.005439345,0.1984314
20231225 09:51:50,-0.466785,-1.107157,3.102990,-0.241135,-0.005819,0.224559,-15.621330,-17.842957,-0.846992,130.01106,1.802405,-1.2443736,-0.5256048,-0.02471146,-0.024513766,0.060895234
20231225 09:51:50,0.180862,-1.386321,1.837595,-0.101574,-0.063348,0.236278,-15.787674,-17.956280,-0.305367,126.43907,1.437089,-1.3478712,-0.116267204,0.102397144,-0.055833127,0.013550967
20231225 09:51:50,0.750136,-1.603883,0.434499,-0.049372,-0.072936,0.209644,-15.496861,-17.838428,-0.444130,119.65405,0.61376405,-1.6029508,0.11790398,0.1267752,-0.043980338,0.014817581
20231225 09:51:50,1.149308,-1.781719,-0.785496,-0.081333,-0.024996,0.139331,-15.306194,-17.998226,-1.637535,109.495186,-0.39977443,-2.0446649,0.072791666,0.06490587,0.016018342,0.056304656
20231225 09:51:50,1.358572,-1.910779,-1.569133,-0.188933,0.038925,0.038123,-15.824032,-16.243069,-1.891228,97.88993,-1.16477,-2.4483216,-0.16489166,-0.049409285,0.07592095,0.143946
20231225 09:51:50,1.239910,-1.903755,-1.959120,-0.341278,0.096454,-0.066281,-15.398632,-16.601322,-0.791847,103.24087,-1.5458105,-2.4235404,-0.050753236,-0.19145188,0.11776444,0.2675724
20231225 09:51:50,0.843253,-1.849923,-2.024001,-0.501080,0.146525,-0.130202,-15.586739,-14.985802,-3.042717,100.777214,-1.5561445,-2.0531552,0.2666199,-0.3338266,0.1570921,0.389139
20231225 09:51:50,0.335037,-1.732893,-1.747348,-0.622530,0.205119,-0.140856,-15.153908,-14.481487,-3.071327,108.90195,-1.2715673,-1.6542062,0.81971335,-0.44284314,0.19614169,0.46340236
20231225 09:51:50,-0.139902,-1.636454,-1.195413,-0.681124,0.266910,-0.112091,-15.486591,-14.708145,-1.988060,118.89332,-0.8553848,-1.4869499,1.259362,-0.5109407,0.22087,0.45781884
20231225 09:51:50,-0.585000,-1.521082,-0.616706,-0.667274,0.304197,-0.054562,-15.039318,-17.799126,-0.844063,129.93123,-0.6048879,-1.4674265,1.4164966,-0.49576068,0.22864959,0.4078346
20231225 09:51:50,-0.740247,-1.584321,-0.225537,-0.611876,0.342549,0.012554,-15.718906,-17.562431,-1.268181,129.3829,-0.4078133,-1.6141573,1.451096,-0.44011188,0.2542424,0.288169
20231225 09:51:50,-0.792988,-1.686387,0.170073,-0.536236,0.364922,0.072214,-15.393654,-18.198353,-1.223442,131.46964,-0.19791636,-1.778709,1.3654118,-0.36243147,0.28353223,0.17211749
20231225 09:51:50,-0.577365,-1.682683,0.511751,-0.441420,0.342549,0.138266,-15.639259,-18.032997,-0.834755,130.64424,0.11707361,-1.7675288,1.0713859,-0.24060236,0.2875073,0.07300121
20231225 09:51:50,-0.158337,-1.715582,0.513877,-0.343408,0.310589,0.191533,-15.561916,-17.352234,-2.084175,125.29818,0.31920072,-1.7366498,0.87935907,-0.11116408,0.2921683,-0.005268939
20231225 09:51:50,0.354517,-1.801553,0.330014,-0.260311,0.288217,0.219232,-15.764500,-17.653751,-1.798561,123.22638,0.4154322,-1.7993696,0.6552504,-0.009415582,0.30533192,-0.059651427
20231225 09:51:50,0.961483,-1.817675,0.150589,-0.194260,0.266910,0.214971,-15.747726,-16.888042,-2.652199,117.09302,0.5612538,-1.8775228,0.33937207,0.054445393,0.30691788,-0.083737075
20231225 09:51:50,1.418487,-1.641183,-0.121458,-0.144188,0.233884,0.174487,-16.091560,-17.959793,-1.915810,116.1445,0.5521145,-1.8236198,-0.09294966,0.075696036,0.27802277,-0.075763494
20231225 09:51:50,1.634845,-1.464927,-0.566363,-0.127143,0.224296,0.122285,-16.020607,-16.815865,-2.525658,108.441605,0.25286528,-1.7826599,-0.35656694,0.0630513,0.26124528,-0.050401535
20231225 09:51:50,1.606280,-1.203231,-0.980912,-0.149515,0.249864,0.076475,-15.256512,-17.218746,-3.429543,105.44202,-0.12503743,-1.5895565,-0.52575105,0.027882624,0.27853218,-0.023745801
20231225 09:51:50,1.418089,-0.947535,-1.124111,-0.195325,0.299935,0.049842,-15.995899,-17.280880,-2.896965,107.10549,-0.2832777,-1.2602446,-0.49483594,-0.019686926,0.32309678,-0.004494424
20231225 09:51:50,1.186913,-0.723028,-0.904935,-0.248592,0.314850,0.034927,-16.189522,-17.487381,-2.617470,110.656624,-0.1544413,-0.900705,-0.42370376,-0.0769728,0.3340567,0.033545062
20231225 09:51:50,0.912066,-0.489032,-0.606576,-0.284814,0.302066,0.034927,-16.101292,-17.671036,-2.470634,114.20821,-0.004014492,-0.5589473,-0.3520819,-0.11671012,0.31468186,0.06833817
20231225 09:51:50,0.687422,-0.358968,-0.356755,-0.294402,0.297805,0.045580,-14.951710,-13.988079,-3.637398,108.5021,0.11048961,-0.3818003,-0.28498226,-0.1297864,0.304641,0.06125646
20231225 09:51:50,0.555297,-0.317798,0.043207,-0.259246,0.274367,0.062626,-16.120377,-17.285416,-3.299828,115.9991,0.37177882,-0.32230312,-0.2739721,-0.10680832,0.27742139,0.035963476
20231225 09:51:50,0.482516,-0.341370,0.170552,-0.201717,0.220034,0.075410,-16.356632,-17.216934,-2.636787,117.38734,0.43010658,-0.34265307,-0.24059668,-0.06397396,0.2214786,0.016464727
20231225 09:51:50,0.491815,-0.408755,0.038831,-0.156972,0.183813,0.091390,-16.093864,-16.808468,-3.598640,114.2988,0.32704645,-0.41103846,-0.1737145,-0.021621533,0.18524574,-8.005835E-5
20231225 09:51:50,0.515086,-0.428354,-0.168043,-0.115424,0.191270,0.110566,-16.596611,-17.130970,-3.448616,113.62969,0.16691545,-0.43640783,-0.13806507,0.022438154,0.19413178,-0.03871341
20231225 09:51:50,0.549817,-0.546013,-0.378270,-0.082398,0.224296,0.120155,-16.030342,-16.527107,-3.080482,114.07511,0.016090602,-0.560891,-0.049274266,0.051108934,0.22769348,-0.08603065
20231225 09:51:50,0.497389,-0.729363,-0.459055,-0.072810,0.231753,0.109501,-16.481487,-17.029572,-3.320122,114.50675,-0.07130593,-0.73278624,0.11527105,0.044775892,0.23242693,-0.09571689
20231225 09:51:50,0.398434,-0.661675,-0.526987,-0.054699,0.224296,0.090325,-16.006401,-16.608349,-4.012749,112.15415,-0.19058084,-0.64983803,0.14322928,0.038903978,0.22238885,-0.09494046
20231225 09:51:50,0.241008,-0.394805,-0.810362,-0.018477,0.224296,0.079671,-16.399769,-14.848652,-3.863579,108.69145,-0.5317524,-0.3381899,0.13488145,0.044338387,0.21848555,-0.11155315
20231225 09:51:50,-0.001192,-0.140048,-1.233827,-0.000366,0.245603,0.084998,-16.196415,-14.930912,-3.588234,110.61632,-1.0449876,0.0036200434,0.28254002,0.044514544,0.23357432,-0.12900801
20231225 09:51:50,-0.213699,-0.015769,-1.521270,-0.006758,0.261583,0.108436,-16.638210,-15.530247,-3.553520,111.80038,-1.4190536,0.20039645,0.46201482,0.05079195,0.24038912,-0.12771508
20231225 09:51:50,-0.261903,0.147043,-1.677420,-0.034457,0.261583,0.137200,-16.251358,-14.925365,-4.392982,107.50292,-1.615557,0.3727246,0.39834857,0.06652707,0.23518156,-0.100785464
20231225 09:51:50,-0.147383,0.263349,-1.888282,-0.077071,0.261583,0.158507,-16.253159,-15.867329,-4.465492,105.66938,-1.7889894,0.48056358,0.2422527,0.07798873,0.23576124,-0.055218957
20231225 09:51:50,-0.017821,0.513136,-2.003795,-0.114358,0.281825,0.179814,-16.633736,-15.033974,-5.595436,99.726456,-1.8789768,0.73218566,-0.052215204,0.08451368,0.25388893,-0.021843232
20231225 09:51:50,0.130174,0.255245,-2.169937,-0.177214,0.293543,0.191533,-16.263393,-13.485275,-6.630638,91.909706,-1.9357022,0.39681077,-0.19384603,0.082516745,0.27550045,0.038207766
20231225 09:51:50,0.373702,0.107392,-2.192822,-0.252854,0.309524,0.176618,-16.537197,-16.640244,-4.685799,98.61378,-1.8345829,0.07864655,-0.2466507,0.058553427,0.3130553,0.09079424
20231225 09:51:50,0.638353,0.109922,-2.044220,-0.315709,0.323373,0.144658,-16.977959,-15.913841,-5.139503,95.645164,-1.5407321,-0.003444977,-0.5313627,0.004856229,0.3373464,0.13379884
20231225 09:51:50,0.769396,0.128646,-1.776897,-0.394545,0.299935,0.104174,-16.915470,-16.958221,-4.132927,100.88365,-1.1915278,-0.023142457,-0.58025694,-0.07341211,0.3207951,0.2001054
20231225 09:51:50,0.889047,0.419759,-1.473265,-0.452074,0.248799,0.079671,-16.413876,-16.060047,-5.124352,96.27594,-0.82515156,0.24357001,-0.90336674,-0.12433586,0.2764812,0.27471775
20231225 09:51:50,1.023993,0.892554,-1.226931,-0.484034,0.205119,0.066887,-17.110245,-16.589054,-4.694832,97.25531,-0.4845295,0.7003801,-1.2489232,-0.15269884,0.23817079,0.32293966
20231225 09:51:50,1.092365,1.239490,-1.112820,-0.512799,0.155048,0.060495,-17.142014,-16.280972,-6.992775,89.73494,-0.332686,1.0641179,-1.5522716,-0.17525335,0.18726559,0.37786666
20231225 09:51:50,1.014896,1.496498,-1.022649,-0.537302,0.132676,0.059430,-16.792534,-16.186138,-4.851952,98.18278,-0.28461152,1.3700051,-1.5353925,-0.1987329,0.15940487,0.40206388
20231225 09:51:50,0.865058,1.563170,-0.740744,-0.547955,0.118826,0.045580,-17.004852,-16.198898,-5.121162,100.12388,-0.13924867,1.5085739,-1.4553388,-0.23069069,0.13410781,0.41114122
20231225 09:51:50,0.628457,1.754715,-0.478947,-0.528779,0.148656,0.012554,-17.075535,-15.633312,-5.560707,101.86499,-0.092876405,1.761739,-1.3836569,-0.26767874,0.14587526,0.3727239
20231225 09:51:50,0.253696,1.934414,0.005112,-0.445682,0.194466,-0.013014,-17.032516,-16.100178,-5.663765,106.512794,0.021799365,1.9390655,-1.2287909,-0.26715028,0.17642538,0.27281392
20231225 09:51:50,-0.125295,2.091250,0.292536,-0.314644,0.240276,-0.009818,-17.048256,-15.540142,-5.298561,109.19661,-0.0546896,2.0328166,-1.0485007,-0.20914851,0.21652585,0.13693842
20231225 09:51:50,-0.408095,2.215473,0.372382,-0.170822,0.281825,0.024273,-17.054550,-16.080853,-7.406883,106.07983,-0.227801,2.095225,-0.8980149,-0.11386584,0.2587475,-0.011733023
20231225 09:51:50,-0.537793,2.296955,0.257560,-0.034457,0.304197,0.077541,-16.829014,-12.571510,-7.767677,98.618706,-0.39943656,2.1800885,-0.7954426,0.002998598,0.28593636,-0.13979709
20231225 09:51:50,-0.400058,2.238431,-0.102755,0.073143,0.318046,0.130808,-17.640118,-13.393803,-7.186195,99.67041,-0.5876036,2.1937273,-0.78885484,0.10669643,0.30290312,-0.23599072
20231225 09:51:50,-0.162662,2.190310,-0.504482,0.161567,0.357464,0.172357,-16.986538,-16.200748,-4.852928,107.09465,-0.7232076,2.2163568,-0.81363136,0.19491169,0.34770542,-0.33341962
20231225 09:51:50,0.162435,2.203592,-0.704558,0.251056,0.397947,0.178749,-16.967304,-12.975445,-6.402977,95.01223,-0.67609257,2.2462623,-1.1508144,0.2516932,0.39433557,-0.41588905
20231225 09:51:50,0.312410,2.285568,-1.040495,0.333088,0.444823,0.145723,-17.527451,-15.751999,-6.361275,98.08785,-0.9572023,2.3646128,-1.2169068,0.2454637,0.44472328,-0.5026843
20231225 09:51:50,0.047414,2.628140,-1.175222,0.412989,0.520463,0.108436,-17.394394,-15.460564,-6.245018,100.814415,-1.4313219,2.772576,-1.0267498,0.19052526,0.5254344,-0.5969042
20231225 09:51:50,-0.499862,3.381643,-1.296233,0.446015,0.556684,0.100978,-17.748734,-15.859779,-6.624397,105.940056,-2.2878733,3.5248704,-0.6692029,0.10488945,0.5546287,-0.6302939
20231225 09:51:50,-1.126384,4.202223,-1.423064,0.361852,0.542835,0.157442,-17.651154,-16.140308,-6.203194,112.256256,-3.242605,4.194682,-0.2108229,0.05894783,0.48930895,-0.54606247
20231225 09:51:50,-1.579594,5.024906,-1.228603,0.155175,0.471456,0.281022,-17.245602,-15.729160,-6.493935,111.580284,-3.5706317,4.785368,-0.17920497,0.114699975,0.3458084,-0.35296997
20231225 09:51:50,-1.370869,5.164806,-0.617713,-0.111162,0.348941,0.423779,-17.625027,-15.471474,-6.782478,105.84916,-2.4770281,4.9346476,-0.80166376,0.22783233,0.20861979,-0.09147362
20231225 09:51:50,-0.587279,4.635286,0.209511,-0.319971,0.276498,0.514333,-17.306938,-15.260441,-6.659126,100.27345,-0.53603876,4.5587373,-1.7222346,0.26554045,0.21030594,0.10276012
20231225 09:51:51,0.506979,3.856932,1.297674,-0.410525,0.323373,0.503680,-17.337170,-15.719913,-7.835167,97.00629,1.4800916,3.885019,-2.7126017,0.18527281,0.34951484,0.11495419
20231225 09:51:51,1.420835,2.881953,2.509457,-0.448878,0.378771,0.399276,-17.367233,-13.465984,-7.312737,97.25881,3.0691612,2.9730685,-3.1903248,0.025810122,0.45228937,0.044292312
20231225 09:51:51,2.193626,1.862573,3.782408,-0.478707,0.350007,0.241604,-17.980900,-15.103134,-8.283745,104.04697,4.3055396,1.9756148,-3.496462,-0.1676174,0.4377988,0.009524573
20231225 09:51:51,2.747694,0.840880,4.907228,-0.437159,0.289282,0.067953,-18.032501,-14.923176,-7.894096,110.40499,5.077732,0.9197149,-3.6137471,-0.29271007,0.3587532,0.0033487827
20231225 09:51:51,2.801223,-0.348741,5.891013,-0.275226,0.260518,-0.095046,-17.801872,-14.912266,-7.356621,117.26678,5.171547,-0.29965243,-3.4220674,-0.26778704,0.28876773,-0.037365675
20231225 09:51:51,2.388048,-1.710708,6.482920,-0.013150,0.269040,-0.260175,-18.165554,-15.214611,-8.010368,120.58265,4.6357355,-1.6672301,-2.6103556,-0.10161117,0.2581031,-0.086326964
20231225 09:51:51,1.584990,-2.731288,6.676347,0.288343,0.253060,-0.409323,-17.442291,-14.400551,-8.458214,121.55036,3.71027,-2.7103431,-1.6304986,0.13640934,0.24207091,-0.0982454
20231225 09:51:51,0.539221,-3.496871,6.345133,0.582379,0.168898,-0.513727,-17.768967,-14.898487,-8.295006,123.09947,2.5696564,-3.5848675,-0.67778397,0.38867247,0.21453856,-0.05072385
20231225 09:51:51,-0.545794,-3.841370,5.382967,0.777338,0.045317,-0.545688,-17.972317,-14.816227,-8.570320,122.30491,1.4745278,-4.1630917,0.53165007,0.5491647,0.19120029,-0.02211827
20231225 09:51:51,-1.207595,-3.706268,4.451220,0.811429,-0.131531,-0.490290,-16.805340,-14.362270,-7.650551,123.08364,0.8198221,-4.194824,1.0832925,0.5785669,0.05952126,0.041717023
20231225 09:51:51,-1.225062,-3.296193,3.703870,0.696371,-0.421305,-0.429565,-17.741688,-14.805317,-8.032860,120.902664,0.86806214,-3.8216088,1.3799843,0.4731485,-0.2328378,0.20420703
20231225 09:51:51,-1.193372,-2.639439,2.772454,0.465191,-0.741975,-0.383755,-17.399921,-16.385052,-7.792381,122.32714,0.8424479,-3.1812732,1.2813184,0.28458506,-0.5706701,0.43850642
20231225 09:51:51,-1.243015,-1.895699,1.757035,0.215899,-0.964633,-0.335814,-17.460873,-16.108219,-7.677071,119.759514,0.44728976,-2.3955145,1.3874152,0.13082694,-0.82210577,0.63770163
20231225 09:51:51,-1.254079,-1.365248,0.760722,0.050771,-0.977417,-0.296396,-17.949413,-16.223213,-9.014137,115.39073,-0.060950875,-1.7490698,1.5292526,0.05859025,-0.8471262,0.6752071
20231225 09:51:51,-1.454625,-0.784927,0.024147,-0.027000,-0.799504,-0.253783,-17.953888,-16.719486,-6.972237,120.06015,-0.6942447,-1.0923928,1.541067,0.037311137,-0.6710708,0.5502403
20231225 09:51:51,-1.817960,-0.200628,-0.361857,-0.036588,-0.521448,-0.195188,-18.393879,-16.376858,-6.864998,121.414085,-1.3191483,-0.56390464,1.6432929,0.024120927,-0.40749907,0.37063196
20231225 09:51:51,-2.264130,0.075471,-0.335634,-0.001432,-0.252980,-0.118483,-18.272366,-16.738625,-7.376060,122.78917,-1.6979984,-0.5131768,1.8193251,0.014623329,-0.1766263,0.17766537
20231225 09:51:51,-2.609376,0.044312,-0.158625,0.047574,-0.051629,-0.027929,-18.060432,-16.533978,-7.387321,123.61302,-1.850813,-0.7602348,1.9860766,0.032545127,-0.018867526,0.0031914106
20231225 09:51:51,-2.608552,-0.143589,0.157250,0.102973,0.051709,0.078606,-18.448055,-16.755085,-7.108788,123.51706,-1.627789,-0.99863267,1.9308949,0.10385112,0.051748194,-0.13431606
20231225 09:51:51,-2.267181,-0.500040,0.328892,0.149848,0.071951,0.183010,-17.999096,-17.002693,-7.222130,122.310905,-1.2116176,-1.1866995,1.8036575,0.20373654,0.05467145,-0.21797654
20231225 09:51:51,-1.728497,-0.992817,0.226324,0.179678,0.062363,0.276761,-18.624512,-16.387768,-7.402473,118.711136,-0.8305204,-1.3939818,1.7642512,0.29718345,0.03551227,-0.25971037
20231225 09:51:51,-1.041348,-1.548537,0.173603,0.186070,0.025076,0.348139,-18.263783,-16.451717,-7.662636,115.98623,-0.392845,-1.7041628,1.6702802,0.36543947,4.2887405E-4,-0.25517282
20231225 09:51:51,-0.318311,-2.072239,0.166203,0.172220,-0.050564,0.385426,-18.379292,-16.361229,-8.071602,112.98174,0.049516954,-2.0991566,1.5723832,0.38981923,-0.06664407,-0.19305545
20231225 09:51:51,0.252206,-2.476587,0.063749,0.149848,-0.145380,0.393949,-18.563946,-16.472710,-7.798241,111.15329,0.2661616,-2.4728322,1.5254256,0.37761536,-0.14870906,-0.10547726
20231225 09:51:51,0.805938,-2.768167,-0.234938,0.102973,-0.235935,0.368381,-18.375950,-16.186817,-6.877220,109.80801,0.29349363,-2.8186903,1.4447031,0.31075832,-0.22180273,0.0026620403
20231225 09:51:51,1.253661,-3.019624,-0.587583,0.039052,-0.265764,0.304460,-18.527321,-16.476406,-7.261742,107.918106,0.23322746,-3.188305,1.4353493,0.20252141,-0.23560394,0.09239539
20231225 09:51:51,1.473044,-3.082267,-0.666800,-0.004628,-0.248719,0.218167,-18.942223,-16.790680,-7.245354,107.48499,0.28103337,-3.31523,1.3612292,0.10855329,-0.21675578,0.13113958
20231225 09:51:51,1.518871,-3.113028,-0.672301,-0.034457,-0.208236,0.104174,-19.044506,-13.203613,-8.284340,97.69541,0.35022,-3.3355572,1.3713553,0.018944792,-0.18924056,0.16693416
20231225 09:51:51,1.244074,-2.995912,-0.416278,-0.031261,-0.165622,-0.014079,-19.507454,-16.068810,-8.101921,106.8064,0.4887434,-3.091802,1.4321703,-0.04246857,-0.16369283,0.14303942
20231225 09:51:51,0.718139,-2.793073,-0.090536,-0.003562,-0.161360,-0.107830,-19.100368,-16.425213,-7.270775,112.11252,0.51287705,-2.7824275,1.5031694,-0.0717629,-0.16017388,0.14556037
20231225 09:51:51,0.151918,-2.527603,0.153073,0.032660,-0.197582,-0.155771,-19.128029,-16.326496,-7.813393,112.277664,0.3612862,-2.5170825,1.5985202,-0.06769276,-0.18569985,0.15848534
20231225 09:51:51,-0.195163,-2.159624,0.152483,0.068881,-0.260438,-0.165359,-18.361362,-16.171188,-8.083839,111.93132,0.15690678,-2.173364,1.539005,-0.040638022,-0.23708342,0.17107737
20231225 09:51:51,-0.343983,-1.928347,0.034674,0.083796,-0.339273,-0.162163,-18.790852,-16.501099,-6.860832,113.873985,-0.015084503,-1.9464611,1.4705397,-0.020425491,-0.31011724,0.20338826
20231225 09:51:51,-0.334867,-1.831923,-0.290676,0.066751,-0.417044,-0.169620,-19.197559,-16.336575,-7.411507,110.61028,-0.25287387,-1.8161321,1.4721648,-0.036872685,-0.38975632,0.25407457
20231225 09:51:51,-0.197614,-1.679226,-0.524170,0.025202,-0.466050,-0.190927,-18.802391,-17.154297,-7.488167,109.61899,-0.38684887,-1.6399297,1.2863942,-0.09014106,-0.44580197,0.30578116
20231225 09:51:51,-0.063698,-1.414433,-0.734248,-0.013150,-0.480965,-0.222887,-19.564583,-16.813335,-9.259636,102.84022,-0.50391483,-1.3540238,1.0014651,-0.14512308,-0.4619939,0.33016905
20231225 09:51:51,-0.073464,-1.234130,-0.889138,-0.041915,-0.440481,-0.252717,-19.259396,-13.774559,-9.187004,97.69491,-0.63597226,-1.1474152,0.861385,-0.1849258,-0.41669008,0.31484714
20231225 09:51:51,-0.209122,-1.093174,-0.992864,-0.054699,-0.342469,-0.281482,-18.413082,-14.089821,-9.024040,99.97501,-0.77663124,-0.9731557,0.905357,-0.21334724,-0.30761573,0.2718766
20231225 09:51:51,-0.513099,-0.799228,-0.826042,-0.028065,-0.213562,-0.292135,-19.264038,-16.984234,-8.843575,108.317726,-0.80446756,-0.69743466,1.0227132,-0.20482753,-0.15822159,0.199716
20231225 09:51:51,-1.040225,-0.512951,-0.498426,0.033725,-0.104897,-0.278286,-18.650490,-13.445675,-9.202415,105.90159,-0.8914483,-0.56419045,1.2074438,-0.1627971,-0.026698299,0.08254264
20231225 09:51:51,-1.504600,-0.190518,-0.285851,0.089123,-0.048433,-0.232476,-19.126728,-13.291229,-9.351219,107.50814,-1.0796711,-0.428384,1.3523967,-0.10289922,0.040421028,8.6550415E-4
20231225 09:51:51,-1.802156,0.175792,-0.234666,0.116822,-0.052695,-0.163228,-19.242001,-17.003563,-7.100471,118.08317,-1.3077435,-0.18438928,1.4159664,-0.034032024,0.029358815,-0.019612942
20231225 09:51:51,-1.809003,0.479829,-0.346961,0.125345,-0.076132,-0.079065,-19.014324,-17.358948,-7.476921,116.85257,-1.4472405,0.15033716,1.3320596,0.036053985,-0.016779961,-0.04396369
20231225 09:51:51,-1.673026,0.861304,-0.575795,0.115757,-0.074002,0.012554,-19.008816,-15.536934,-10.007286,106.86829,-1.6194179,0.64574516,1.0593451,0.09521495,-0.04946364,-0.061651733
20231225 09:51:51,-1.364925,0.971886,-0.738065,0.094450,-0.054825,0.095652,-18.853073,-13.747189,-8.916817,103.36931,-1.5675257,0.89858484,0.75973135,0.14135084,-0.062122237,-0.064263225
20231225 09:51:51,-0.892463,0.872920,-0.710440,0.066751,-0.046303,0.135070,-19.314487,-17.379944,-7.612495,106.953835,-1.216924,0.8827309,0.4336611,0.15583262,-0.06241414,-0.054381087
20231225 09:51:51,-0.360992,0.687090,-0.713571,0.046509,-0.045237,0.124416,-18.977314,-17.554539,-6.659950,106.00076,-0.8662584,0.73463535,0.063947335,0.1343509,-0.05522704,-0.03476992
20231225 09:51:51,0.034641,0.500731,-0.680094,0.024137,-0.051629,0.077541,-18.981037,-17.537056,-8.134819,100.067,-0.5816304,0.53584814,-0.2287229,0.08100361,-0.05473493,-5.527721E-4
20231225 09:51:51,0.246432,0.400163,-0.507476,0.001764,-0.069740,0.017881,-19.101635,-13.948139,-9.442055,91.40092,-0.30047056,0.42257115,-0.41941342,0.018239006,-0.07024947,0.036757477
20231225 09:51:51,0.226295,0.408545,-0.315278,0.009222,-0.108093,-0.023667,-18.660873,-14.674545,-8.988335,94.703125,-0.15338564,0.4289061,-0.4005176,-0.009623716,-0.1065958,0.053519048
20231225 09:51:51,0.164055,0.320614,-0.318552,0.036921,-0.121942,-0.036452,-19.575951,-14.753143,-8.188484,96.80629,-0.18292885,0.33776635,-0.29387772,-0.004222136,-0.119280696,0.040369432
20231225 09:51:51,0.226336,-0.014782,-0.346067,0.058228,-0.135792,-0.049236,-18.992302,-16.480751,-9.811531,96.28987,-0.14894825,-0.0014020465,-0.15334246,-0.0025148578,-0.13332763,0.034423493
20231225 09:51:51,0.322301,-0.340981,-0.292919,0.095515,-0.149641,-0.074804,-19.734482,-14.195786,-8.494392,95.64475,-0.036461696,-0.33553046,-0.03580695,-7.288419E-4,-0.14814377,0.017781967
20231225 09:51:51,0.395853,-0.595017,-0.276691,0.187135,-0.157099,-0.124875,-19.017277,-17.725246,-8.390831,102.46925,0.025268927,-0.588364,0.07130073,0.015250087,-0.1540341,-0.04028008
20231225 09:51:51,0.330087,-0.913958,-0.570344,0.306454,-0.143249,-0.200515,-18.388760,-14.362949,-9.675835,94.121056,-0.23447669,-0.8917285,0.3062086,0.02687326,-0.13174655,-0.1511997
20231225 09:51:51,0.248081,-1.291052,-0.899266,0.418316,-0.123008,-0.297462,-19.535770,-17.487720,-7.875618,103.50249,-0.51796544,-1.231885,0.6504892,0.008293465,-0.09145665,-0.23031381
20231225 09:51:51,0.077252,-1.424123,-1.292905,0.495021,-0.119812,-0.397605,-19.058613,-14.415005,-9.545113,95.45632,-0.8866227,-1.2781218,0.781217,-0.046043783,-0.04600412,-0.3275173
20231225 09:51:51,-0.095030,-1.514018,-1.726241,0.489694,-0.156034,-0.484963,-18.746799,-15.642220,-7.452354,103.52882,-1.252342,-1.2019385,1.0302885,-0.13634494,-0.022392288,-0.28846765
20231225 09:51:51,-0.454920,-1.094406,-2.094171,0.394878,-0.244457,-0.510531,-19.316288,-18.321903,-7.685020,109.793274,-1.6370646,-0.46339905,1.177567,-0.18200856,-0.016284958,-0.1757743
20231225 09:51:51,-0.854608,-0.277275,-2.470469,0.242533,-0.339273,-0.441284,-19.121902,-18.499187,-7.403557,114.80569,-2.2198267,0.67420495,1.2847546,-0.118392676,-0.06349544,-0.033939168
20231225 09:51:51,-1.183691,0.415234,-2.799774,0.045444,-0.407456,-0.326226,-19.316673,-18.130016,-7.965477,117.88812,-2.785769,1.5981245,1.443054,-0.014176011,-0.14893006,0.14153089
20231225 09:51:51,-1.374370,0.751039,-2.932164,-0.169757,-0.474573,-0.210103,-19.045712,-17.242752,-9.494392,114.286316,-3.1148286,1.9367855,1.4699554,0.043177053,-0.30262437,0.34284538
20231225 09:51:51,-1.395650,0.934902,-2.804614,-0.381761,-0.548082,-0.124875,-19.542278,-15.123142,-8.565910,112.390564,-3.173335,1.9312733,1.3748059,0.041837387,-0.47186953,0.55654025
20231225 09:51:51,-1.187897,0.969214,-2.562371,-0.550086,-0.597088,-0.081196,-18.778183,-15.526024,-9.469810,105.24089,-2.9745293,1.7107714,0.9966702,-0.035849445,-0.59607124,0.73719186
20231225 09:51:51,-0.968939,0.937920,-2.079365,-0.649163,-0.603480,-0.070543,-18.866180,-19.145176,-6.956932,110.51004,-2.4666066,1.3589587,0.81566787,-0.16012725,-0.6387507,0.8372458
20231225 09:51:51,-0.658417,0.906810,-1.548731,-0.683254,-0.607741,-0.080131,-19.564468,-18.714741,-7.929771,104.64774,-1.8164753,1.1120021,0.35943887,-0.27148235,-0.6456893,0.8870084
20231225 09:51:51,-0.388508,0.894182,-1.109195,-0.671535,-0.602414,-0.115287,-19.403366,-18.713909,-6.990425,106.61441,-1.2746649,1.012353,0.072959706,-0.34038913,-0.6325981,0.8847892
20231225 09:51:51,-0.376428,1.002829,-0.769085,-0.626791,-0.569389,-0.157901,-18.893311,-15.627422,-9.598305,97.2487,-0.9884598,1.0671535,-0.13531041,-0.3721934,-0.5922695,0.83761287
20231225 09:51:51,-0.552962,1.364496,-0.489928,-0.559674,-0.522513,-0.195188,-19.453281,-15.690578,-7.858147,103.788376,-0.93795323,1.36167,-0.15998408,-0.3632686,-0.53727823,0.766662
20231225 09:51:51,-0.981878,1.833677,-0.219563,-0.462727,-0.444743,-0.217561,-18.709187,-18.934986,-7.772926,111.3002,-1.116303,1.6771152,-0.015774257,-0.31825197,-0.44354492,0.6525235
20231225 09:51:51,-1.508294,2.424831,-0.010512,-0.338082,-0.308378,-0.214365,-19.572899,-15.390724,-10.022438,104.91332,-1.5041922,2.0147789,0.027580943,-0.26310906,-0.28999048,0.47433886
20231225 09:51:51,-2.097601,2.841543,0.402720,-0.174018,-0.166687,-0.179208,-19.054943,-19.047291,-8.438881,116.35932,-1.776192,2.0397666,0.20665099,-0.18135794,-0.13428706,0.2725109
20231225 09:51:51,-2.551739,2.926313,0.876681,0.026267,-0.067610,-0.116353,-19.378662,-19.178936,-7.361748,120.504906,-1.8118229,1.7855524,0.30600372,-0.048408598,-0.017793559,0.048124366
20231225 09:51:51,-2.674614,2.598933,1.229575,0.252121,-0.007950,-0.043909,-20.015999,-19.025318,-8.449867,117.952446,-1.5269475,1.425555,0.3214295,0.12651601,0.06413796,-0.18086435
20231225 09:51:51,-2.276222,2.007226,1.410825,0.498217,0.004834,0.011489,-19.290813,-19.170696,-7.495369,118.4085,-0.8732035,1.1179335,0.24248484,0.32004374,0.09943427,-0.39394632
20231225 09:51:51,-1.595070,1.519182,1.223933,0.753900,0.010161,0.026404,-19.900105,-19.307697,-7.760445,115.094154,-0.35217118,0.98324966,0.08434507,0.483689,0.1211867,-0.6055548
20231225 09:51:51,-1.200062,1.280462,0.727944,1.010649,0.038925,0.014685,-19.238827,-19.542545,-7.604561,113.57107,-0.36268294,0.91028404,0.17182767,0.5704099,0.1799535,-0.8599706
20231225 09:51:51,-1.101382,1.432447,-0.377740,1.191758,0.146525,0.015751,-19.246761,-18.311832,-8.086891,109.171394,-1.2332348,1.3008729,0.38595223,0.5385541,0.3119104,-1.1170654
20231225 09:51:51,-1.147094,1.823133,-1.243155,1.215196,0.254125,0.023208,-19.574081,-20.327396,-7.154762,113.141846,-2.1490154,1.9451357,0.57682645,0.41648045,0.41194746,-1.2109741
20231225 09:51:51,-1.327630,2.599659,-1.757340,1.077766,0.278628,0.062626,-19.097847,-20.481831,-7.005959,116.20769,-3.0729609,2.849936,0.70230734,0.30240324,0.39601067,-1.1069751
20231225 09:51:51,-1.524216,3.402127,-2.040550,0.742181,0.201923,0.167030,-19.672695,-21.372616,-7.087517,116.15619,-3.74891,3.6717236,0.74664986,0.28449503,0.21610342,-0.7847246
20231225 09:51:51,-1.262728,3.628388,-1.715904,0.248925,-0.001558,0.304460,-19.336674,-20.971539,-6.976372,109.33839,-3.0954447,3.8103888,0.1901009,0.35602447,-0.068121925,-0.2679401
20231225 09:51:51,-0.621285,3.321829,-0.853449,-0.265638,-0.241261,0.447216,-19.610710,-20.323696,-7.691246,100.19612,-1.3704327,3.3582757,-0.7539438,0.31523216,-0.29805803,0.30763584
20231225 09:51:51,0.409646,2.460037,0.303588,-0.750371,-0.480965,0.581450,-19.208115,-20.278851,-8.895897,95.9587,0.69328284,2.4497826,-1.6905103,0.035210937,-0.3840569,0.8570629
20231225 09:51:51,1.792951,1.150534,1.617518,-1.132831,-0.661009,0.649633,-19.336906,-17.168724,-9.636086,95.07888,2.5898404,1.0870255,-2.1861644,-0.46294641,-0.29650915,1.2332791
20231225 09:51:51,3.175254,-0.159558,2.944415,-1.316071,-0.689773,0.607019,-19.354073,-17.742542,-9.062920,109.52611,4.1597195,-0.43593776,-2.548563,-0.86757416,-0.15200268,1.1383332
20231225 09:51:51,3.981939,-1.459311,4.182565,-1.277719,-0.528905,0.464262,-20.705971,-20.017498,-8.659920,123.16666,5.099691,-1.9325986,-2.7816396,-1.0198698,-0.018798396,0.7563361
20231225 09:51:51,4.129645,-2.045006,4.829253,-1.002859,-0.245523,0.245866,-20.042507,-19.502262,-8.151070,128.21588,5.29552,-2.583797,-2.799048,-0.8749665,0.08184129,0.40574384
20231225 09:51:51,3.606750,-3.259315,6.432838,-0.542628,0.026141,-0.002360,-20.579311,-19.262890,-7.904091,127.93477,5.195282,-3.4778306,-2.481852,-0.511874,0.14578472,0.15836354
20231225 09:51:51,2.562132,-3.140208,6.843312,-0.031261,0.156113,-0.233541,-19.538994,-19.563541,-7.740150,128.2448,4.695526,-3.0859551,-2.586886,-0.10531178,0.14592902,0.031902254
20231225 09:51:51,1.410944,-2.185367,6.174825,0.361852,0.098585,-0.414650,-20.236897,-19.324993,-8.432503,121.84973,4.1380234,-2.05885,-1.9092479,0.120291695,0.06246933,-0.05655296
20231225 09:51:51,0.389150,-0.698587,4.478024,0.522720,-0.062283,-0.500943,-19.888084,-19.850262,-9.600487,114.74453,3.186534,-0.7433715,-1.1995722,0.078575045,-0.049719498,-0.13251524
20231225 09:51:51,-0.450693,0.824487,2.503827,0.427904,-0.196517,-0.481767,-19.726990,-19.849430,-8.661156,110.69035,1.554929,0.56727815,-0.7101761,-0.078074485,-0.12201567,-0.10335844
20231225 09:51:51,-0.916515,2.005879,1.161410,0.163697,-0.272156,-0.375232,-20.159050,-20.737522,-8.071602,109.8095,0.1685574,1.732733,-0.4993914,-0.17982121,-0.20133193,0.07582573
20231225 09:51:51,-0.915430,2.615447,0.617399,-0.147384,-0.278549,-0.261240,-19.258564,-20.674557,-7.664833,109.16238,-0.29360145,2.441368,-0.6563657,-0.26314157,-0.25505626,0.3111307
20231225 09:51:51,-0.716359,2.280187,0.787306,-0.382826,-0.189059,-0.177078,-19.682816,-20.891972,-7.922813,111.22696,-0.011422634,2.1412265,-0.8587081,-0.35144228,-0.19773473,0.45069003
20231225 09:51:51,-0.612841,1.390764,1.658931,-0.433963,-0.018604,-0.112091,-19.620441,-20.034939,-8.246071,113.89371,0.6955934,1.2346846,-0.8783771,-0.3764855,-0.038250875,0.35979322
20231225 09:51:51,-0.528167,0.463356,2.599905,-0.323167,0.141199,-0.046040,-19.013073,-18.938488,-9.383369,115.035,1.2691057,0.30090535,-0.80653906,-0.28183615,0.12429089,0.1288411
20231225 09:51:51,-0.426002,-0.577584,3.212551,-0.128208,0.202989,0.016816,-19.621330,-17.749748,-10.136864,114.59422,1.5385499,-0.7103336,-0.41271174,-0.10166982,0.19572604,-0.08128877
20231225 09:51:51,-0.197860,-1.640069,3.186856,0.073143,0.147591,0.064757,-19.243973,-20.658924,-8.871452,123.541306,1.563274,-1.6793516,-0.22593522,0.09479885,0.14812559,-0.17322937
20231225 09:51:52,0.320776,-2.415276,2.506858,0.231880,0.029337,0.076475,-19.720211,-20.504490,-9.020241,121.61579,1.5569963,-2.3572512,0.4514606,0.2371759,0.021515846,-0.18007778
20231225 09:51:52,0.873799,-2.826868,1.485945,0.334153,-0.072936,0.054103,-19.640560,-20.975056,-8.586815,120.339615,1.3602264,-2.7863421,0.8737582,0.29846036,-0.102630906,-0.16400127
20231225 09:51:52,1.221215,-2.907751,0.321109,0.361852,-0.133661,0.011489,-19.481766,-19.822887,-9.330299,111.83315,0.76636994,-2.9958873,1.2028146,0.26824772,-0.18539083,-0.13923587
20231225 09:51:52,1.541773,-2.811905,-0.656028,0.314977,-0.164556,-0.036452,-19.850037,-18.720104,-9.271965,100.133156,0.06898525,-3.1439562,0.9549543,0.16458519,-0.23018694,-0.10296199
20231225 09:51:52,1.752007,-2.609385,-1.406338,0.199919,-0.165622,-0.106765,-18.904343,-18.373928,-8.615318,93.30606,-0.545627,-3.204186,0.40858907,0.01037851,-0.22746512,-0.040938985
20231225 09:51:52,1.685554,-2.378103,-1.813362,0.044378,-0.151772,-0.180274,-19.870426,-21.369747,-8.563332,95.318375,-0.9444444,-3.0525825,0.21207353,-0.14716947,-0.19892226,0.067250945
20231225 09:51:52,1.406266,-2.144946,-1.835025,-0.109032,-0.123008,-0.252717,-19.459244,-21.037991,-10.054588,93.80477,-0.9905454,-2.6236982,0.22418994,-0.28516543,-0.15160313,0.17078927
20231225 09:51:52,0.912200,-1.901215,-1.542861,-0.223024,-0.095309,-0.295331,-19.506474,-19.357876,-8.958992,99.9434,-0.8036702,-2.0549078,0.5745339,-0.37597877,-0.103915736,0.26516628
20231225 09:51:52,0.354590,-1.716394,-1.068191,-0.289076,-0.068675,-0.309181,-19.922409,-20.997890,-8.454155,110.00159,-0.56813025,-1.7000338,1.0033007,-0.42186323,-0.06789063,0.33079603
20231225 09:51:52,-0.118401,-1.653056,-0.594007,-0.296533,-0.043107,-0.302789,-18.857384,-21.763561,-8.661522,116.48299,-0.39483926,-1.6097165,1.2689464,-0.41938543,-0.040739797,0.3357268
20231225 09:51:52,-0.534398,-1.633433,-0.144006,-0.239004,-0.006885,-0.278286,-19.276775,-21.676579,-10.680931,115.74663,-0.2964809,-1.6564441,1.4617583,-0.36259326,-0.0023776796,0.25894308
20231225 09:51:52,-0.831930,-1.606008,0.183807,-0.138861,0.037860,-0.240998,-19.351551,-21.799160,-8.798088,120.739494,-0.25578994,-1.716737,1.5032846,-0.26921296,0.05029286,0.16166276
20231225 09:51:52,-1.115170,-1.487218,0.284927,-0.013150,0.096454,-0.178143,-19.351551,-21.799160,-8.798088,121.4416,-0.3631923,-1.6779939,1.5805937,-0.14609827,0.120519236,0.016794626
20231225 09:51:52,-1.274723,-1.417223,0.317134,0.109365,0.185943,-0.078000,-19.110920,-20.367481,-8.755165,119.927505,-0.4824686,-1.6414825,1.654375,-0.003006436,0.21153305,-0.16392672
20231225 09:51:52,-1.069055,-1.455288,0.494925,0.210573,0.213642,0.020012,-19.078667,-21.871342,-8.924629,120.8189,-0.25671458,-1.6328738,1.4587085,0.13938896,0.2351765,-0.28551278
20231225 09:51:52,-0.633734,-1.589950,0.280326,0.276624,0.188074,0.091390,-19.256927,-22.445988,-9.290810,118.35144,-0.11385578,-1.6559503,1.3419576,0.24331835,0.20233846,-0.34347904
20231225 09:51:52,-0.139198,-1.689494,-0.245051,0.294735,0.176355,0.132939,-19.053192,-22.720142,-8.735008,115.65003,-0.20839907,-1.6823246,1.1877892,0.2882182,0.18124375,-0.36409295
20231225 09:51:52,0.255597,-1.619691,-0.751536,0.292605,0.182747,0.142527,-18.701046,-23.070995,-8.708595,111.697174,-0.44898003,-1.6327962,0.91581875,0.29677278,0.18143116,-0.3674652
20231225 09:51:52,0.606485,-1.562768,-1.117743,0.224422,0.201923,0.141462,-19.380249,-23.026188,-8.852242,106.33733,-0.6277994,-1.6532613,0.59471,0.2592762,0.19982202,-0.3194259
20231225 09:51:52,0.723506,-1.363636,-1.377711,0.153044,0.218969,0.123351,-18.532131,-22.399479,-8.616768,102.79684,-0.8326442,-1.4841452,0.3051712,0.20191091,0.21968399,-0.26095864
20231225 09:51:52,0.611175,-1.017224,-1.580370,0.083796,0.269040,0.108436,-19.092892,-21.181332,-11.515266,92.710014,-1.0470514,-1.0499839,0.046971865,0.14073864,0.2699537,-0.21426004
20231225 09:51:52,0.209409,-0.627131,-1.634470,0.031594,0.351072,0.115893,-19.112068,-19.791821,-9.596581,99.32448,-1.2487772,-0.48941848,0.26753187,0.0885061,0.3421855,-0.21239795
20231225 09:51:52,-0.240079,-0.247467,-1.493057,0.024137,0.454411,0.161703,-18.747021,-22.970432,-9.519447,108.12625,-1.3474517,-0.04759541,0.56728864,0.082711786,0.42636853,-0.26997733
20231225 09:51:52,-0.509461,-0.354350,-1.327661,0.030529,0.537508,0.213905,-19.213905,-22.912861,-9.393867,111.02086,-1.3074342,-0.17413276,0.864843,0.099849775,0.4925335,-0.33837232
20231225 09:51:52,-0.613063,-0.599613,-1.167191,-0.000366,0.562011,0.258650,-18.410614,-22.761250,-9.127846,112.84691,-1.2001041,-0.47453886,1.0750606,0.12281387,0.5123719,-0.3500943
20231225 09:51:52,-0.413675,-0.632098,-0.849617,-0.040849,0.507678,0.297002,-18.958954,-23.175083,-9.508202,111.89363,-0.8558802,-0.5670635,0.86587065,0.15909472,0.46777838,-0.3091792
20231225 09:51:52,-0.130681,-0.872634,-0.696588,-0.083463,0.404340,0.321505,-18.853176,-22.976810,-9.654060,110.6661,-0.58220667,-0.8366216,0.748389,0.18139459,0.38150063,-0.23201698
20231225 09:51:52,0.251124,-1.117278,-0.705468,-0.122881,0.279694,0.322571,-18.571712,-22.762081,-10.067177,106.81462,-0.41913614,-1.1241243,0.5691214,0.18500093,0.28288195,-0.12014392
20231225 09:51:52,0.594492,-1.088954,-0.928000,-0.145254,0.211512,0.303394,-19.144375,-22.902782,-9.795753,103.15099,-0.4658205,-1.1546285,0.25123757,0.1734663,0.2315074,-0.040730204
20231225 09:51:52,0.735005,-0.897181,-1.184777,-0.139927,0.213642,0.279957,-18.059616,-22.536442,-9.942848,99.58731,-0.6420724,-0.99531746,-0.02421134,0.17026319,0.23549756,-0.023429232
20231225 09:51:52,0.684306,-0.603387,-1.435500,-0.129273,0.264779,0.257585,-19.199314,-22.897236,-10.600487,95.94139,-0.9012592,-0.6754699,-0.20151606,0.16455057,0.27770135,-0.038378756
20231225 09:51:52,0.538556,-0.349164,-1.524295,-0.114358,0.339353,0.239474,-18.598457,-19.436214,-12.428078,85.86881,-1.0518523,-0.3875475,-0.34490845,0.15620872,0.34566352,-0.063170835
20231225 09:51:52,0.379886,-0.216094,-1.570608,-0.091986,0.404340,0.213905,-18.185738,-19.872013,-12.797447,86.70698,-1.1796556,-0.17806958,-0.2701012,0.13301197,0.39856943,-0.11100441
20231225 09:51:52,0.260923,-0.122438,-1.718052,-0.104770,0.453346,0.187272,-19.372818,-22.163609,-9.980247,98.01367,-1.3755844,-0.030939013,-0.056578234,0.09183379,0.44064337,-0.13521141
20231225 09:51:52,0.019759,0.051404,-1.634907,-0.153776,0.462934,0.179814,-18.344421,-22.925587,-10.724113,100.74729,-1.4141175,0.21560168,0.106606066,0.03486628,0.4333465,-0.103482224
20231225 09:51:52,-0.132466,0.306524,-1.431437,-0.197456,0.430973,0.206448,-18.565319,-23.225254,-10.706749,101.94079,-1.3368037,0.45510283,0.11366736,0.033833817,0.3921103,-0.0552659
20231225 09:51:52,-0.167291,0.575314,-1.284427,-0.234743,0.373444,0.255454,-18.917084,-23.066273,-10.452675,102.25809,-1.2572304,0.70404875,0.0042405576,0.0641904,0.3269274,-3.8632937E-4
20231225 09:51:52,-0.049284,0.847720,-1.265081,-0.265638,0.312720,0.314048,-18.769440,-22.759212,-11.543007,96.5198,-1.1937609,0.9384129,-0.29189253,0.123378575,0.27673155,0.066917606
20231225 09:51:52,0.146264,0.977784,-1.231867,-0.315709,0.227492,0.364119,-19.228130,-22.222851,-11.984505,91.445404,-1.0353949,1.00742,-0.57946396,0.16443276,0.21518305,0.16486254
20231225 09:51:52,0.475464,0.957962,-1.433315,-0.400937,0.099650,0.380100,-18.046680,-19.851856,-13.601204,77.34114,-1.0034761,0.87013525,-0.9959188,0.15803246,0.12964681,0.34974483
20231225 09:51:52,0.882605,0.812247,-1.631834,-0.490426,0.030402,0.363054,-18.954865,-22.486912,-11.830574,80.89319,-0.87356716,0.46949047,-1.2779387,0.08897497,0.12791695,0.4455601
20231225 09:51:52,1.435845,0.584085,-1.619190,-0.572458,0.012291,0.288480,-18.785568,-22.007290,-11.458290,78.3414,-0.47247696,-0.04733491,-1.6933514,-0.046607032,0.16555959,0.5177972
20231225 09:51:52,1.898642,0.758552,-1.251140,-0.611876,0.044252,0.171291,-18.840122,-22.193630,-11.982552,78.972046,0.19936275,0.0839178,-2.1311553,-0.17574391,0.18707357,0.5125613
20231225 09:51:52,1.958379,1.049357,-0.830678,-0.596961,0.087931,0.037057,-19.095078,-21.931408,-11.868233,82.95096,0.6458462,0.5266112,-2.2646143,-0.2776502,0.1824566,0.45370626
20231225 09:51:52,1.722626,1.245817,-0.481171,-0.569262,0.136937,-0.092915,-18.513832,-21.503803,-12.426247,85.45363,0.7817738,0.94117177,-2.1437612,-0.36985302,0.18324207,0.3921405
20231225 09:51:52,1.272999,1.559815,-0.086598,-0.514929,0.204054,-0.191992,-18.982143,-22.580082,-12.092720,94.96629,0.7782414,1.476898,-1.9283483,-0.43516082,0.21611468,0.31593853
20231225 09:51:52,0.565582,1.795492,0.407901,-0.421179,0.287151,-0.227149,-18.346722,-21.774250,-12.406929,100.02313,0.6320679,1.7952285,-1.5477687,-0.43805373,0.28558198,0.19420063
20231225 09:51:52,0.216444,1.914530,0.676733,-0.297598,0.325504,-0.194123,-18.163872,-22.604740,-12.752815,103.51802,0.56965387,1.8842939,-1.3988706,-0.35136923,0.32310545,0.07169165
20231225 09:51:52,-0.506400,2.060618,1.323703,-0.156972,0.311654,-0.118483,-18.568005,-21.882038,-12.670036,106.83106,0.47990823,1.8614341,-1.1008782,-0.22266118,0.30778608,-0.045844235
20231225 09:51:52,-0.605677,2.041912,1.446540,-0.006758,0.244537,-0.042844,-18.303703,-22.241116,-12.510002,107.68008,0.51730406,1.8210971,-1.0341014,-0.06272073,0.24621406,-0.133497
20231225 09:51:52,-0.592354,1.955915,1.078220,0.153044,0.188074,-0.000230,-18.092270,-19.943172,-14.131569,98.97081,0.25716496,1.7550902,-0.8071262,0.07087806,0.19977565,-0.23445031
20231225 09:51:52,-0.589088,1.764177,0.414427,0.317107,0.187009,0.011489,-18.332901,-21.374844,-14.174492,98.89487,-0.23282945,1.6337806,-0.5536806,0.16674256,0.21208535,-0.36675575
20231225 09:51:52,-0.521219,1.718141,-0.307126,0.465191,0.227492,0.005097,-18.278343,-21.188503,-13.650215,96.54059,-0.79195416,1.6888095,-0.4241449,0.21136416,0.2663531,-0.5151802
20231225 09:51:52,-0.492643,1.728284,-1.157068,0.565334,0.309524,-0.013014,-18.615784,-22.723423,-13.553383,95.6313,-1.5631675,1.8620938,-0.28851068,0.18516515,0.36004063,-0.64295995
20231225 09:51:52,-0.533760,1.907837,-1.904365,0.611144,0.419254,-0.025798,-17.352497,-20.072926,-14.383690,88.495636,-2.380607,2.2619574,-0.26591006,0.106886566,0.47495982,-0.72602963
20231225 09:51:52,-0.650814,2.286405,-2.527137,0.583445,0.538573,-0.034321,-18.714783,-23.576756,-13.766624,96.4755,-3.2285028,2.9254985,-0.062363505,-0.02078127,0.58562887,-0.72915655
20231225 09:51:52,-0.790041,2.540839,-2.696202,0.456668,0.612082,-0.021537,-17.872673,-22.678768,-12.611122,103.7954,-3.6528454,3.332532,0.14292444,-0.14898121,0.61774,-0.6257021
20231225 09:51:52,-1.201339,2.980219,-2.803065,0.220161,0.589710,0.056234,-17.815060,-23.130009,-13.920799,105.22778,-4.1344395,3.6954455,0.3701892,-0.17460462,0.51073277,-0.41179475
20231225 09:51:52,-1.710022,3.746674,-2.135764,-0.077071,0.485306,0.202186,-17.946968,-23.997120,-13.195656,107.26364,-4.06118,3.9009929,0.40991542,-0.08434051,0.3194412,-0.13567665
20231225 09:51:52,-1.701086,3.712527,-1.725379,-0.366846,0.341484,0.349204,-17.702126,-23.778683,-14.145271,101.978386,-3.3672261,3.7435284,0.01685077,0.017526448,0.15327787,0.14049132
20231225 09:51:52,-0.922054,3.013042,-0.235234,-0.484034,0.276498,0.403537,-17.877815,-23.795147,-13.877998,100.872055,-1.1419455,2.912549,-0.77680194,0.035603344,0.16523772,0.22360052
20231225 09:51:52,-0.034440,2.279974,1.062659,-0.716280,0.189139,0.428040,-18.742832,-23.286152,-14.589699,101.81293,0.7470925,2.255291,-1.5339792,-0.13072103,0.1668382,0.3782776
20231225 09:51:52,0.428550,1.891006,1.775922,-0.764221,0.148656,0.335355,-17.833374,-23.128155,-14.189049,109.97128,1.6190774,1.9464343,-2.0191476,-0.31443444,0.19909982,0.34437296
20231225 09:51:52,1.577858,1.114735,3.841206,-0.705627,0.111369,0.214971,-18.361214,-22.793766,-13.948174,116.04993,3.6713877,1.2359489,-3.0898814,-0.4166887,0.18953733,0.281209
20231225 09:51:52,2.052303,0.363722,4.847657,-0.528779,0.126284,0.081802,-17.569073,-23.487247,-14.029015,125.21601,4.350209,0.47716844,-3.7112193,-0.39213407,0.18899505,0.15933149
20231225 09:51:52,2.090726,-0.542722,5.534881,-0.262442,0.208315,-0.053497,-18.537792,-20.525028,-15.571709,120.662025,4.400568,-0.46424615,-3.0606875,-0.24689373,0.22823435,-0.011283113
20231225 09:51:52,1.497473,-1.537872,5.948452,0.052901,0.331896,-0.171751,-18.045692,-23.140919,-14.458275,130.33026,3.7883177,-1.5028914,-3.0562835,-0.017990038,0.3279632,-0.15106526
20231225 09:51:52,0.481185,-2.191351,6.211099,0.362918,0.371314,-0.249521,-17.570225,-22.911579,-14.870415,130.85994,2.855381,-2.2978084,-2.4078784,0.23252204,0.39536554,-0.24699809
20231225 09:51:52,-0.524758,-2.445841,6.027448,0.502478,0.343615,-0.268697,-18.028801,-24.276623,-13.982048,131.98434,2.011835,-2.8285463,-1.8266084,0.3372551,0.4209562,-0.26798755
20231225 09:51:52,-1.345837,-2.284311,5.115967,0.776273,0.117761,-0.229280,-16.671543,-23.790577,-14.536156,130.74908,1.1986015,-2.9744437,-0.8552122,0.5881831,0.28684843,-0.28629678
20231225 09:51:52,-1.697630,-2.116147,3.748438,0.786926,-0.083590,-0.125941,-17.465103,-24.230946,-14.247368,128.21512,0.64394605,-2.8937142,0.29429567,0.62735885,0.10574282,-0.27487695
20231225 09:51:52,-1.498295,-1.835265,2.391212,0.687849,-0.267895,-0.001295,-17.340630,-24.226414,-13.844505,124.86039,0.4381169,-2.428117,1.0009744,0.59231585,-0.12224082,-0.23056468
20231225 09:51:52,-1.049932,-1.464613,1.036572,0.506739,-0.441547,0.107370,-17.625050,-24.807438,-14.345299,118.40645,0.17391425,-1.7656231,1.30056,0.508652,-0.36231846,-0.10714698
20231225 09:51:52,-0.541251,-1.276598,-0.362146,0.249991,-0.534232,0.181945,-17.860924,-24.930851,-13.401787,112.14583,-0.42327666,-1.2636733,1.2509704,0.37700343,-0.5208348,0.07417673
20231225 09:51:52,-0.226914,-1.101679,-1.319121,-0.030196,-0.518252,0.226689,-18.064274,-24.848591,-13.677132,105.24233,-1.0497535,-0.9284022,0.9875269,0.2373413,-0.5447942,0.27502865
20231225 09:51:52,-0.124535,-1.006829,-1.538028,-0.279487,-0.422371,0.260781,-17.931339,-22.655743,-14.890709,95.01285,-1.2594701,-0.8803849,0.7332376,0.09663898,-0.45749074,0.45304316
20231225 09:51:52,0.277930,-0.798645,-1.366961,-0.478707,-0.298790,0.270369,-17.772160,-21.695469,-15.353722,93.75121,-0.9049274,-0.75034213,0.3068524,-0.060392052,-0.31759366,0.55142856
20231225 09:51:52,0.383344,-0.797307,-0.644644,-0.611876,-0.185863,0.252258,-18.193722,-23.256100,-13.648399,106.32533,-0.21469116,-0.7745712,0.33413592,-0.20856357,-0.2037485,0.5314327
20231225 09:51:52,0.198146,-0.742886,0.337962,-0.653425,-0.135792,0.237343,-18.494537,-24.794720,-13.015068,116.40078,0.4064607,-0.7469502,0.23274575,-0.29983103,-0.17185524,0.46563727
20231225 09:51:52,0.085659,-0.692646,0.895112,-0.658751,-0.075067,0.206448,-17.931072,-20.946224,-15.940102,109.257454,0.67527604,-0.73037475,0.21909901,-0.36739275,-0.12445641,0.4265781
20231225 09:51:52,-0.323213,-0.672928,2.341046,-0.558609,-0.083590,0.204317,-18.498760,-22.683941,-16.100243,115.693146,1.1795367,-0.83332646,-0.13279104,-0.31982046,-0.13920245,0.32468316
20231225 09:51:52,-0.589700,-0.732511,3.005789,-0.372173,-0.098505,0.211775,-18.309349,-21.264202,-15.387215,116.35342,1.2742577,-0.9806744,-0.21816051,-0.17820887,-0.14678986,0.20838168
20231225 09:51:52,-0.744762,-0.799990,3.318478,-0.127143,-0.107028,0.227755,-18.416660,-20.694912,-16.363243,114.483086,1.2845639,-1.0753794,-0.11777198,0.02854368,-0.13271557,0.07384339
20231225 09:51:52,-0.700821,-0.836038,3.338031,0.138129,-0.115550,0.238408,-18.618858,-21.188320,-15.797157,115.96742,1.3362978,-1.1026441,-0.19351494,0.25458208,-0.11701998,-0.07802908
20231225 09:51:52,-0.661765,-1.148435,2.503660,0.374636,-0.089982,0.244800,-18.625252,-20.725155,-15.157600,114.23711,1.0106487,-1.3717015,0.40607655,0.4520551,-0.071242616,-0.23590247
20231225 09:51:52,-0.561621,-1.386564,1.651784,0.562138,-0.039911,0.243735,-18.522045,-21.085072,-15.936913,111.66825,0.66816837,-1.5372574,0.88067937,0.5941902,-0.008107191,-0.3894343
20231225 09:51:52,-0.367363,-1.665888,0.774664,0.680391,0.008030,0.226689,-18.881508,-23.498188,-13.505455,117.10219,0.31837386,-1.7293677,1.0980911,0.66366255,0.041240312,-0.5256344
20231225 09:51:52,-0.183624,-1.993604,0.003474,0.731528,0.027206,0.188337,-18.794163,-21.396671,-15.249428,107.21728,-0.02517475,-1.998154,1.5122982,0.66009605,0.05853824,-0.5606749
20231225 09:51:52,-0.144278,-2.071899,-0.384777,0.733659,0.025076,0.164899,-19.141438,-21.638943,-12.959557,108.15429,-0.25164625,-2.049442,1.5375123,0.6212373,0.057094574,-0.5854904
20231225 09:51:52,-0.099132,-2.215347,-1.309071,0.651627,-0.012212,0.114828,-19.093060,-23.894733,-13.213753,107.861435,-0.92060494,-2.1284862,1.6883953,0.5070686,0.015632506,-0.514557
20231225 09:51:52,-0.056294,-2.203578,-1.811944,0.549353,-0.061218,0.099913,-19.021225,-25.035984,-11.932793,107.89075,-1.3607796,-2.096714,1.6226698,0.41019344,-0.043546624,-0.42537832
20231225 09:51:52,-0.004564,-2.220239,-2.051615,0.483302,-0.081459,0.094586,-18.949886,-24.083935,-12.262154,100.6957,-1.6330652,-2.141381,1.4095496,0.34718686,-0.07305332,-0.3698021
20231225 09:51:52,0.109727,-2.187192,-2.428063,0.242533,-0.093178,0.069018,-18.942341,-25.122776,-12.060310,100.84645,-1.9350103,-2.117033,1.2946588,0.19013777,-0.090818085,-0.16344133
20231225 09:51:52,0.155048,-1.921890,-2.302301,0.089123,-0.064414,0.053038,-18.961811,-24.545261,-13.169975,99.782295,-1.7590698,-1.8359787,1.1407967,0.09583255,-0.06412818,-0.04383546
20231225 09:51:52,-0.043858,-1.851548,-1.825788,0.031594,-0.050564,0.043450,-18.741409,-22.152294,-14.797661,98.15752,-1.3358215,-1.697717,1.2816848,0.057617646,-0.051921077,7.7743875E-4
20231225 09:51:52,-0.199666,-1.786655,-1.613612,-0.048307,-0.047368,0.030665,-19.041191,-22.365177,-14.652779,100.934944,-1.2185014,-1.634058,1.418217,-9.3859993E-4,-0.053523343,0.06310569
20231225 09:51:52,-0.486881,-1.682575,-1.215212,-0.121816,-0.059087,0.041319,-18.996250,-23.791485,-13.353493,108.79299,-1.0488918,-1.5733796,1.6372736,-0.039251376,-0.0743467,0.12113226
20231225 09:51:52,-0.489665,-1.693582,-1.101285,-0.138861,-0.067610,0.046646,-19.208302,-22.094723,-14.672096,103.54183,-0.9835078,-1.6118393,1.6034124,-0.047672167,-0.083186105,0.14142878
20231225 09:51:52,-0.362772,-1.694968,-0.902069,-0.163364,-0.101701,0.044515,-19.346092,-24.591953,-11.697060,112.57944,-0.8010941,-1.6468087,1.5171719,-0.06532732,-0.1140446,0.1741111
20231225 09:51:52,-0.185291,-1.503640,-0.889322,-0.215567,-0.167752,0.013620,-19.049385,-22.843967,-14.085732,103.14499,-0.72735715,-1.4637562,1.2037585,-0.118376225,-0.17695707,0.2682651
